timestamp,ax,ay,az,roll1,roll2,pitch,yaw1,yaw2,fx,fy,fz,gx,gy,gz,mx,my,mz,step
92433236,223,728,16175,-0.007896081,0.999936938,-0.007959226,0.996579783,0.011253236,0,0,0,4,37,-5,171,-513,314,0
92453236,49,495,16542,-0.007896081,0.999936938,-0.007959226,0.996579783,0.011253236,0,0,0,13,29,-6,173,-507,309,0
92473236,108,582,16305,-0.007896081,0.999936938,-0.007959226,0.996579783,0.011253236,0,0,0,30,48,8,175,-511,303,0
92493236,53,565,15946,-0.007896081,0.999936938,-0.007959226,0.996579783,0.011253236,0,0,0,34,47,6,169,-527,303,0
92513236,166,547,15930,-0.007896081,0.999936938,-0.007959226,0.996579783,0.011253236,0,0,0,9,35,10,165,-513,321,0
92533236,312,525,16111,-0.007896081,0.999936938,-0.007959226,0.996579783,0.011253236,0,0,0,9,40,3,159,-527,309,0
92553236,292,510,16164,-0.007896081,0.999936938,-0.007959226,0.996579783,0.011253236,0,0,0,16,50,-3,169,-527,283,0
92573236,332,566,16215,-0.007896081,0.999936938,-0.007959226,0.996579783,0.011253236,0,0,0,16,53,2,165,-515,292,0
92593236,232,591,16407,-0.007896081,0.999936938,-0.007959226,0.996579783,0.011253236,0,0,0,20,48,-13,179,-523,310,0
92613236,131,643,16294,-0.007896081,0.999936938,-0.007959226,0.996579783,0.011253236,0,0,0,31,67,-2,163,-523,309,0
92633236,248,609,16205,-0.007896081,0.999936938,-0.007959226,0.996579783,0.011253236,0,0,0,24,56,1,177,-517,305,0
92653236,297,628,16287,-0.007896081,0.999936938,-0.007959226,0.996579783,0.011253236,0,0,0,20,50,-10,183,-515,329,0
92673236,209,639,16312,-0.007896081,0.999936938,-0.007959226,0.996579783,0.011253236,0,0,0,16,52,-27,161,-523,299,0
92693236,-33,644,16547,-0.007896081,0.999936938,-0.007959226,0.996579783,0.011253236,0,0,0,6,41,-28,167,-521,310,0
92713236,-143,678,16560,-0.007896081,0.999936938,-0.007959226,0.996579783,0.011253236,0,0,0,8,39,-10,171,-519,305,0
92733236,-82,639,16433,-0.007896081,0.999936938,-0.007959226,0.996579783,0.011253236,0,0,0,19,40,-6,175,-513,303,0
92753236,-72,668,16478,-0.007896081,0.999936938,-0.007959226,0.996579783,0.011253236,0,0,0,17,34,-3,169,-523,303,0
92773236,-17,638,16509,-0.007896081,0.999936938,-0.007959226,0.996579783,0.011253236,0,0,0,27,38,4,169,-519,287,0
92793236,74,720,16325,-0.007896081,0.999936938,-0.007959226,0.996579783,0.011253236,0,0,0,35,44,8,169,-533,319,0
92813236,30,614,16282,-0.007896081,0.999936938,-0.007959226,0.996579783,0.011253236,0,0,0,34,31,0,177,-509,298,0
92833236,56,627,16238,-0.007896081,0.999936938,-0.007959226,0.996579783,0.011253236,0,0,0,35,41,19,163,-513,299,0
92853236,275,718,16147,-0.007896081,0.999936938,-0.007959226,0.996579783,0.011253236,0,0,0,35,46,22,175,-523,290,0
92873236,211,652,16105,-0.007896081,0.999936938,-0.007959226,0.996579783,0.011253236,0,0,0,16,39,17,175,-519,303,0
92893236,236,704,16136,-0.007896081,0.999936938,-0.007959226,0.996579783,0.011253236,0,0,0,17,39,15,163,-527,305,0
92913236,93,625,16133,-0.007896081,0.999936938,-0.007959226,0.996579783,0.011253236,0,0,0,16,39,15,181,-513,299,0
92933236,155,691,16184,-0.007896081,0.999936938,-0.007959226,0.996579783,0.011253236,0,0,0,15,37,28,169,-523,302,0
92953236,137,677,16169,-0.007896081,0.999936938,-0.007959226,0.996579783,0.011253236,0,0,0,15,38,20,173,-493,294,0
92973236,72,631,16256,-0.007896081,0.999936938,-0.007959226,0.996579783,0.011253236,0,0,0,9,33,24,165,-501,289,0
92993236,172,673,16156,-0.007896081,0.999936938,-0.007959226,0.996579783,0.011253236,0,0,0,12,44,31,173,-505,292,0
93013236,216,692,16145,-0.007896081,0.999936938,-0.007959226,0.996579783,0.011253236,0,0,0,4,36,24,171,-541,308,0
93033236,73,582,16321,-0.007896081,0.999936938,-0.007959226,0.996579783,0.011253236,0,0,0,1,34,11,173,-533,290,0
93053236,13,514,16162,-0.007896081,0.999936938,-0.007959226,0.996579783,0.011253236,0,0,0,0,38,24,157,-507,282,0
93073236,23,577,16199,-0.007896081,0.999936938,-0.007959226,0.996579783,0.011253236,0,0,0,-6,25,28,169,-519,317,0
93093240,156,619,16402,-0.007896081,0.999936938,-0.007959226,0.996579783,0.011253236,0,0,0,0,22,28,173,-515,306,0
93113240,172,643,16346,-0.007896081,0.999936938,-0.007959226,0.996579783,0.011253236,0,0,0,3,36,26,177,-509,310,0
93133240,235,567,16287,-0.007896081,0.999936938,-0.007959226,0.996579783,0.011253236,0,0,0,0,24,19,163,-527,324,0
93153240,162,564,16358,-0.007896081,0.999936938,-0.007959226,0.996579783,0.011253236,0,0,0,1,19,15,169,-525,283,0
93173240,139,553,16387,-0.007896081,0.999936938,-0.007959226,0.996579783,0.011253236,0,0,0,2,26,19,173,-517,314,0
93193240,222,579,16369,-0.007896081,0.999936938,-0.007959226,0.996579783,0.011253236,0,0,0,6,32,21,183,-523,311,0
93213240,267,556,16223,-0.007896081,0.999936938,-0.007959226,0.996579783,0.011253236,0,0,0,14,24,19,165,-511,290,0
93233240,203,398,16298,-0.007896081,0.999936938,-0.007959226,0.996579783,0.011253236,0,0,0,5,18,4,169,-531,302,0
93253240,124,470,16284,-0.007896081,0.999936938,-0.007959226,0.996579783,0.011253236,0,0,0,19,30,10,165,-531,306,0
93273240,299,518,16211,-0.007896081,0.999936938,-0.007959226,0.996579783,0.011253236,0,0,0,28,34,5,173,-521,290,0
93293240,154,526,16114,-0.007896081,0.999936938,-0.007959226,0.996579783,0.011253236,0,0,0,41,49,-4,167,-503,311,0
93313240,-40,557,15998,-0.007896081,0.999936938,-0.007959226,0.996579783,0.011253236,0,0,0,51,50,-15,161,-519,305,0
93333240,-245,567,15802,-0.007896081,0.999936938,-0.007959226,0.996579783,0.011253236,0,0,0,38,61,12,173,-529,313,0
93353240,91,691,15717,-0.007896081,0.999936938,-0.007959226,0.996579783,0.011253236,0,0,0,28,75,34,173,-519,305,0
93373240,549,754,16032,-0.007896081,0.999936938,-0.007959226,0.996579783,0.011253236,0,0,0,19,63,26,173,-529,300,0
93393240,615,750,16106,-0.007896081,0.999936938,-0.007959226,0.996579783,0.011253236,0,0,0,9,65,3,167,-521,288,0
93413240,200,787,15936,-0.007896081,0.999936938,-0.007959226,0.996579783,0.011253236,0,0,0,7,57,-25,183,-523,302,0
93433240,265,681,16326,-0.007896081,0.999936938,-0.007959226,0.996579783,0.011253236,0,0,0,-7,43,-17,179,-529,301,0
93453240,51,740,16302,-0.007896081,0.999936938,-0.007959226,0.996579783,0.011253236,0,0,0,-5,56,-29,163,-511,307,0
93473240,-86,641,16510,-0.007896081,0.999936938,-0.007959226,0.996579783,0.011253236,0,0,0,-2,51,-17,191,-523,288,0
93493240,21,648,16678,-0.007896081,0.999936938,-0.007959226,0.996579783,0.011253236,0,0,0,5,68,-9,177,-523,289,0
93513240,117,712,16662,-0.007896081,0.999936938,-0.007959226,0.996579783,0.011253236,0,0,0,11,73,-12,173,-531,306,0
93533240,-142,646,16911,-0.007725794,0.999938294,-0.007956868,0.996624019,0.01073957,-540,1030,1056,12,48,-20,185,-527,290,0
93553240,-303,659,17014,-0.00751278,0.999943605,-0.007481129,0.99658273,0.010573169,-858,1074,1260,35,49,-11,173,-521,280,0
93573240,-203,679,16772,-0.007904803,0.999948617,-0.006319526,0.996631173,0.010578852,-670,1152,776,62,73,1,185,-515,271,0
93593240,-180,721,16194,-0.008340836,0.999952845,-0.004941685,0.996594191,0.01049953,-640,1280,-380,70,75,-5,175,-513,301,0
93613240,-106,662,16169,-0.008129032,0.999959683,-0.003779275,0.996637482,0.010851644,-482,1200,-430,63,48,15,167,-513,304,0
93633240,264,775,16072,-0.007486481,0.999968451,-0.002614911,0.996592205,0.0112908,278,1464,-624,62,32,13,183,-523,320,0
93653240,193,724,16185,-0.007486481,0.999968451,-0.002614911,0.996592205,0.0112908,0,0,0,50,43,5,183,-523,299,0
93673240,201,782,16079,-0.007486481,0.999968451,-0.002614911,0.996592205,0.0112908,0,0,0,46,68,7,191,-527,306,0
93693240,213,779,15961,-0.007487722,0.999969088,-0.002356289,0.99663578,0.011206262,176,1480,-846,38,61,-7,191,-525,329,0
93713240,-14,653,16050,-0.00740155,0.999969732,-0.002355948,0.996635458,0.011206685,0,0,0,29,45,-4,181,-519,310,0
93733240,50,697,16214,-0.007315379,0.999970369,-0.002355608,0.996635139,0.011207104,0,0,0,29,33,13,179,-523,295,0
93753240,241,701,16226,-0.007229207,0.999970999,-0.002355267,0.996634824,0.011207519,0,0,0,34,53,14,189,-501,302,0
93773240,288,651,15957,-0.007013451,0.99997264,-0.002312342,0.996589802,0.011552036,342,1226,-854,36,53,10,189,-511,290,0
93793240,312,570,16137,-0.007013451,0.99997264,-0.002312342,0.996589802,0.011552036,0,0,0,27,54,3,171,-509,285,0
93813240,184,561,16278,-0.007013451,0.99997264,-0.002312342,0.996589802,0.011552036,0,0,0,29,40,-2,177,-509,296,0
93833240,90,576,16376,-0.007013451,0.99997264,-0.002312342,0.996589802,0.011552036,0,0,0,31,49,9,181,-517,310,0
93853240,177,553,16292,-0.007013451,0.99997264,-0.002312342,0.996589802,0.011552036,0,0,0,46,67,24,183,-521,298,0
93873240,265,469,16251,-0.007013451,0.99997264,-0.002312342,0.996589802,0.011552036,0,0,0,45,67,26,165,-505,291,0
93893240,415,473,16276,-0.007013451,0.99997264,-0.002312342,0.996589802,0.011552036,0,0,0,47,56,33,179,-517,304,0
93913240,470,551,16265,-0.007013451,0.99997264,-0.002312342,0.996589802,0.011552036,0,0,0,45,64,23,185,-511,290,0
93933240,294,433,16369,-0.007013451,0.99997264,-0.002312342,0.996589802,0.011552036,0,0,0,49,62,10,183,-519,328,0
93953240,272,481,16211,-0.007013451,0.99997264,-0.002312342,0.996589802,0.011552036,0,0,0,54,66,10,195,-501,290,0
93973240,272,441,16308,-0.007013451,0.99997264,-0.002312342,0.996589802,0.011552036,0,0,0,50,47,6,167,-527,286,0
93993240,259,427,16185,-0.007013451,0.99997264,-0.002312342,0.996589802,0.011552036,0,0,0,48,52,10,193,-527,304,0
94013240,342,509,16102,-0.007013451,0.99997264,-0.002312342,0.996589802,0.011552036,0,0,0,36,64,8,177,-497,291,0
94033240,122,390,16285,-0.007013451,0.99997264,-0.002312342,0.996589802,0.011552036,0,0,0,26,51,12,179,-507,286,0
94053240,231,467,16322,-0.007013451,0.99997264,-0.002312342,0.996589802,0.011552036,0,0,0,37,43,24,161,-505,312,0
94073240,192,383,16251,-0.007013451,0.99997264,-0.002312342,0.996589802,0.011552036,0,0,0,39,60,26,175,-515,287,0
94093240,472,396,16123,-0.007013451,0.99997264,-0.002312342,0.996589802,0.011552036,0,0,0,28,62,36,177,-523,285,0
94113240,545,440,16193,-0.007013451,0.99997264,-0.002312342,0.996589802,0.011552036,0,0,0,28,50,12,185,-515,292,0
94133240,369,357,16122,-0.007013451,0.99997264,-0.002312342,0.996589802,0.011552036,0,0,0,21,57,6,181,-513,299,0
94153240,319,370,16185,-0.007013451,0.99997264,-0.002312342,0.996589802,0.011552036,0,0,0,10,40,8,197,-525,287,0
94173240,381,365,16272,-0.007013451,0.99997264,-0.002312342,0.996589802,0.011552036,0,0,0,1,28,14,181,-511,289,0
94193240,450,418,16478,-0.007013451,0.99997264,-0.002312342,0.996589802,0.011552036,0,0,0,11,41,5,197,-507,291,0
94213240,317,411,16357,-0.007013451,0.99997264,-0.002312342,0.996589802,0.011552036,0,0,0,18,45,0,189,-497,270,0
94233240,67,317,16418,-0.007013451,0.99997264,-0.002312342,0.996589802,0.011552036,0,0,0,24,37,4,167,-507,282,0
94253240,269,339,16240,-0.007013451,0.99997264,-0.002312342,0.996589802,0.011552036,0,0,0,26,52,29,183,-501,290,0
94273240,311,359,16230,-0.007013451,0.99997264,-0.002312342,0.996589802,0.011552036,0,0,0,26,43,15,179,-517,284,0
94293240,320,359,16318,-0.007013451,0.99997264,-0.002312342,0.996589802,0.011552036,0,0,0,30,39,22,197,-513,306,0
94313240,396,421,16197,-0.007013451,0.99997264,-0.002312342,0.996589802,0.011552036,0,0,0,31,43,28,195,-519,289,0
94333240,410,493,16192,-0.007013451,0.99997264,-0.002312342,0.996589802,0.011552036,0,0,0,6,22,10,201,-511,309,0
94353240,428,453,16517,-0.007013451,0.99997264,-0.002312342,0.996589802,0.011552036,0,0,0,7,24,10,187,-521,309,0
94373240,209,492,16400,-0.007013451,0.99997264,-0.002312342,0.996589802,0.011552036,0,0,0,11,38,18,183,-511,295,0
94393240,178,453,16490,-0.007013451,0.99997264,-0.002312342,0.996589802,0.011552036,0,0,0,10,12,19,185,-499,297,0
94413240,224,530,16484,-0.007013451,0.99997264,-0.002312342,0.996589802,0.011552036,0,0,0,23,18,20,195,-523,301,0
94433240,41,445,16426,-0.007013451,0.99997264,-0.002312342,0.996589802,0.011552036,0,0,0,30,21,3,187,-525,300,0
94453240,-1,451,16407,-0.007013451,0.99997264,-0.002312342,0.996589802,0.011552036,0,0,0,33,22,26,185,-511,295,0
94473240,180,470,16139,-0.007013451,0.99997264,-0.002312342,0.996589802,0.011552036,0,0,0,40,16,31,183,-517,281,0
94493240,373,416,16282,-0.007013451,0.99997264,-0.002312342,0.996589802,0.011552036,0,0,0,27,6,29,199,-519,310,0
94513240,314,361,16373,-0.007013451,0.99997264,-0.002312342,0.996589802,0.011552036,0,0,0,26,9,21,165,-523,326,0
94533240,250,373,16325,-0.007013451,0.99997264,-0.002312342,0.996589802,0.011552036,0,0,0,28,34,33,191,-509,298,0
94553240,293,371,16194,-0.007013451,0.99997264,-0.002312342,0.996589802,0.011552036,0,0,0,23,15,25,175,-509,312,0
94573240,362,352,16229,-0.007013451,0.99997264,-0.002312342,0.996589802,0.011552036,0,0,0,19,11,20,169,-519,296,0
94593240,344,347,16261,-0.007013451,0.99997264,-0.002312342,0.996589802,0.011552036,0,0,0,24,7,12,161,-517,290,0
94613240,373,352,16184,-0.007013451,0.99997264,-0.002312342,0.996589802,0.011552036,0,0,0,24,23,14,161,-509,288,0
94633240,375,380,16113,-0.007013451,0.99997264,-0.002312342,0.996589802,0.011552036,0,0,0,27,17,2,173,-519,305,0
94653240,228,387,16282,-0.007013451,0.99997264,-0.002312342,0.996589802,0.011552036,0,0,0,14,6,7,167,-511,279,0
94673240,195,321,16291,-0.007013451,0.99997264,-0.002312342,0.996589802,0.011552036,0,0,0,8,18,1,171,-507,306,0
94693240,103,273,16266,-0.007013451,0.99997264,-0.002312342,0.996589802,0.011552036,0,0,0,12,9,9,175,-503,292,0
94713240,173,380,16280,-0.007013451,0.99997264,-0.002312342,0.996589802,0.011552036,0,0,0,25,14,6,177,-515,301,0
94733240,120,392,16189,-0.007013451,0.99997264,-0.002312342,0.996589802,0.011552036,0,0,0,25,19,4,161,-521,302,0
94753240,157,370,16187,-0.007013451,0.99997264,-0.002312342,0.996589802,0.011552036,0,0,0,27,2,5,171,-511,292,0
94773240,77,364,16277,-0.007013451,0.99997264,-0.002312342,0.996589802,0.011552036,0,0,0,25,19,-7,171,-513,306,0
94793240,-88,428,16278,-0.007013451,0.99997264,-0.002312342,0.996589802,0.011552036,0,0,0,28,12,6,185,-509,312,0
94813240,-89,395,16198,-0.007013451,0.99997264,-0.002312342,0.996589802,0.011552036,0,0,0,26,6,20,177,-509,291,0
94833240,-19,414,16193,-0.007013451,0.99997264,-0.002312342,0.996589802,0.011552036,0,0,0,27,-3,17,151,-513,290,0
94853240,-107,352,16223,-0.007013451,0.99997264,-0.002312342,0.996589802,0.011552036,0,0,0,40,-14,9,167,-515,316,0
94873240,-329,394,16107,-0.007013451,0.99997264,-0.002312342,0.996589802,0.011552036,0,0,0,35,-19,7,165,-515,298,0
94893240,-538,355,16247,-0.007013451,0.99997264,-0.002312342,0.996589802,0.011552036,0,0,0,27,-47,29,169,-515,297,0
94913240,-484,282,16221,-0.003956091,0.999990772,-0.001655903,0.996576687,0.012766948,0,0,0,52,-119,59,167,-531,315,0
94933240,-536,395,16105,-0.001543786,0.999997839,-0.00138696,0.996610809,0.013887277,0,0,0,36,-94,59,169,-517,289,0
94953240,-922,-180,16159,0.002333762,0.999996748,-0.001018016,0.996592337,0.017057924,-1770,-394,-450,41,-156,140,157,-511,306,0
94973240,-695,151,16152,0.012195479,0.999925366,-0.000191154,0.996507984,0.021382472,-992,296,-464,57,-398,185,161,-505,311,0
94993240,-1251,249,16007,0.032408187,0.999468906,0.00283972,0.996373581,0.026910152,-1442,592,-738,143,-821,237,167,-513,304,0
95013244,-1525,453,16122,0.060406078,0.998157274,0.004579467,0.99626722,0.03204724,-1072,1056,-466,87,-1137,223,133,-519,291,0
95033244,-1111,261,16712,0.090298001,0.995881598,0.006232172,0.996131098,0.036061933,736,726,790,79,-1217,177,127,-515,303,0
95053244,-1396,-383,17448,0.122924358,0.992344581,0.009519181,0.995987464,0.038536442,1234,-454,2378,147,-1330,124,113,-511,322,0
95073244,-3111,-96,17117,0.153371956,0.988001643,0.015760784,0.995767355,0.04114156,-1198,324,1858,262,-1249,148,83,-491,285,0
95093244,-5019,-689,16904,0.185017765,0.982396258,0.023393706,0.995332897,0.048376484,-4074,-624,1596,263,-1185,354,101,-495,293,0
95113244,-4903,-255,16352,0.221337644,0.974544978,0.033207704,0.994563106,0.05899208,-2618,596,754,348,-1437,524,47,-491,312,0
95133244,-4402,-373,16049,0.258586552,0.964879677,0.043687884,0.993545238,0.069216689,-332,692,478,346,-1573,520,49,-481,295,0
95153244,-8385,1664,15337,0.303739399,0.951088663,0.053372063,0.992694288,0.074338909,-6992,5222,-540,515,-1701,382,11,-495,314,0
95173244,-5684,-890,16076,0.342884205,0.936312726,0.073018192,0.990876433,0.08178979,-122,618,1472,686,-1726,564,-19,-487,333,0
95193244,-5807,-1291,15633,0.372626001,0.922999812,0.093452024,0.988862742,0.085717641,608,482,1024,745,-1350,466,-43,-471,311,0
95213244,-6987,-1910,15567,0.397582311,0.910590364,0.110464908,0.986507881,0.092485702,-948,-204,1294,552,-1159,540,-55,-449,337,0
95233244,-7898,-2129,14356,0.429263243,0.893712861,0.127980603,0.983814515,0.098527025,-1740,-72,-580,566,-1475,540,-65,-457,348,0
95253244,-7650,-2576,14025,0.465825409,0.87165489,0.150106374,0.980718624,0.098899409,-32,-250,-514,809,-1746,443,-91,-437,336,0
95273244,-8067,-2791,14598,0.501041738,0.848065956,0.170296414,0.977221057,0.101422727,300,-26,1414,683,-1769,513,-107,-435,344,0
95293244,-8802,-3331,14671,0.53315239,0.823935619,0.190091146,0.973491762,0.103030851,-118,-468,2352,668,-1678,502,-135,-417,368,0
95313244,-9649,-3298,13582,0.559853064,0.801114334,0.210005604,0.969509454,0.103098793,-948,244,914,689,-1448,484,-137,-399,368,0
95333244,-9971,-3567,13033,0.587463032,0.775907084,0.228613072,0.965261608,0.10456582,-686,302,644,595,-1561,521,-143,-391,367,0
95353244,-10236,-4315,12801,0.623886237,0.74054439,0.248801753,0.960828001,0.100989144,-8,-556,1344,744,-2090,421,-175,-385,397,0
95373244,-11361,-4688,12385,0.666444361,0.693800535,0.272545716,0.955522209,0.092144128,-852,-544,2052,970,-2564,407,-197,-377,398,0
95393244,-12097,-4776,12045,0.703014795,0.647144072,0.29514153,0.949982252,0.082285514,-1128,-4,2906,949,-2398,406,-219,-371,416,0
95413244,-12117,-5283,11372,0.730108378,0.605666142,0.317484161,0.943724176,0.075527055,-280,-324,2922,822,-2034,527,-211,-353,422,0
95433244,-11559,-5549,10141,0.759542374,0.556025809,0.339635002,0.937319912,0.065137606,1846,-178,2142,913,-2417,448,-255,-341,457,0
95453244,-12160,-4733,7653,0.797213545,0.488144349,0.357996996,0.932284439,0.041538974,1842,2046,-658,1236,-3005,121,-269,-339,503,0
95473244,-14022,-6025,7937,0.829815634,0.417002585,0.374236977,0.927122986,0.016158408,-802,-48,2256,1252,-3023,95,-289,-317,530,0
95493244,-13519,-6624,7623,0.849650405,0.359020641,0.390477436,0.921055477,-0.0037407,880,-774,3600,1072,-2466,240,-293,-313,556,0
95513244,-13085,-5859,5512,0.866689101,0.299654841,0.403865718,0.915493503,-0.025781082,2262,1176,1244,1067,-2357,202,-301,-313,556,0
95533244,-14051,-6406,5024,0.882796716,0.237219237,0.410585235,0.911624383,-0.051217653,876,288,2376,1135,-2488,-33,-291,-301,607,0
95553244,-14074,-5879,3167,0.898079565,0.170991352,0.409674281,0.909811016,-0.079665709,1314,1318,772,1154,-2519,-273,-319,-309,646,0
95573244,-14546,-6635,2746,0.910560479,0.112534432,0.400930432,0.910517611,-0.10624209,776,-474,1848,1037,-2198,-509,-337,-303,649,0
95593244,-14379,-6237,1041,0.917591132,0.05870983,0.395306118,0.90971992,-0.128756823,1334,152,184,913,-2011,-302,-335,-303,693,0
95613244,-14577,-6311,110,0.923489466,0.001119962,0.384251018,0.910002191,-0.153944554,1136,-336,212,1020,-2120,-479,-321,-313,695,0
95633244,-15128,-6393,-518,0.926616982,-0.055282064,0.37096254,0.910158411,-0.180191465,136,-904,812,1092,-2051,-509,-339,-321,730,0
95653244,-15474,-6082,-1907,0.926337503,-0.10486974,0.359101199,0.909985326,-0.20095359,-570,-642,-352,893,-1833,-399,-339,-317,772,0
95673244,-14518,-5317,-3141,0.923731312,-0.155513862,0.345927778,0.91004689,-0.221019784,1252,484,-1176,879,-1875,-408,-327,-331,800,0
95693244,-14315,-5551,-2935,0.918601776,-0.214936573,0.324925389,0.911534758,-0.242789123,1504,-640,1224,1028,-2269,-671,-329,-343,795,0
95713244,-14490,-5466,-3430,0.910721725,-0.27450821,0.299007929,0.913191637,-0.266278924,894,-1284,2200,1183,-2274,-787,-331,-345,843,0
95733244,-14278,-5075,-4465,0.900120074,-0.331757503,0.269488084,0.914466092,-0.290354477,972,-1436,2006,1294,-2189,-852,-327,-361,848,0
95753244,-14691,-4517,-5710,0.885614222,-0.389642255,0.235613567,0.915222188,-0.314654933,-328,-1388,1424,1414,-2261,-927,-329,-363,865,0
95773244,-14369,-3239,-7993,0.863960946,-0.453735346,0.196326576,0.915450374,-0.339138824,-384,-76,-1054,1559,-2578,-1019,-315,-377,909,0
95793244,-13481,-3055,-8003,0.835300338,-0.518535102,0.153252732,0.914620321,-0.362097496,456,-1112,1078,1673,-2759,-1080,-305,-401,922,0
95813244,-13197,-2193,-9884,0.8021148,-0.578469172,0.107622652,0.913042815,-0.381667534,-62,-868,-726,1696,-2692,-1111,-289,-425,977,0
95833244,-13468,-1790,-10987,0.767621491,-0.629101479,0.063665822,0.909734014,-0.398676479,-1744,-1502,-1274,1673,-2440,-992,-281,-431,969,0
95853244,-11258,-85,-11795,0.734420715,-0.670085477,0.023765378,0.906711875,-0.409857558,1588,614,-1592,1436,-2096,-905,-243,-463,1013,0
95873244,-11124,-286,-11846,0.69447672,-0.711148396,-0.023528553,0.90377244,-0.416165138,546,-1358,-310,1580,-2324,-1182,-241,-481,1030,0
95893244,-10829,451,-12950,0.65815161,-0.742063696,-0.068479436,0.899515558,-0.420494772,-64,-1356,-1528,1535,-1937,-1071,-209,-495,1040,0
95913244,-10075,1598,-13365,0.621723115,-0.767673492,-0.110940737,0.895451505,-0.419959255,250,-442,-1520,1385,-1804,-1067,-195,-531,1065,0
95933244,-9887,2049,-13065,0.583516553,-0.789655555,-0.155433646,0.890079767,-0.417490337,-640,-992,-194,1470,-1797,-1098,-187,-535,1079,0
95953244,-9930,2881,-13944,0.538866973,-0.810286198,-0.204098541,0.881646624,-0.415037001,-2192,-900,-1264,1689,-2023,-1088,-149,-563,1072,0
95973244,-10322,3401,-14409,0.492660338,-0.827102918,-0.249649283,0.871894909,-0.411552103,-4560,-1360,-1610,1665,-2115,-996,-141,-593,1086,0
95993244,-8906,3942,-13446,0.451421794,-0.838121779,-0.28932897,0.861170739,-0.409268269,-3090,-1522,662,1520,-1876,-745,-109,-603,1107,0
96013244,-7261,4380,-12578,0.417035032,-0.843474258,-0.325889373,0.849693349,-0.407745937,-908,-1770,2542,1439,-1526,-581,-101,-623,1085,0
96033244,-6200,4706,-11838,0.38485156,-0.843984876,-0.365055571,0.836149201,-0.405169163,202,-2302,4026,1533,-1339,-549,-67,-649,1077,0
96053244,-4950,5918,-11841,0.355119646,-0.838439191,-0.409593264,0.818738401,-0.402095998,1746,-1216,3842,1757,-1182,-527,-41,-659,1079,0
96073244,-3886,6521,-10625,0.329636106,-0.826721402,-0.458336737,0.798577303,-0.396551061,3034,-1468,5882,1922,-935,-590,-53,-673,1053,0
96093244,-3419,7500,-10216,0.307295704,-0.807081196,-0.514419919,0.773121221,-0.38845386,3284,-1060,6092,2119,-690,-598,-19,-697,1054,0
96113244,-3704,8422,-9952,0.288388431,-0.778995831,-0.577727178,0.741134658,-0.3786369,2064,-994,5724,2416,-521,-634,-35,-697,1057,0
96133244,-3461,9429,-9562,0.277625287,-0.744415779,-0.640390914,0.706038041,-0.367801908,2210,-660,5382,2395,-90,-573,-9,-727,1040,0
96153244,-2185,10626,-8256,0.272204194,-0.704363802,-0.703508514,0.669361722,-0.352858307,4662,178,6702,2289,410,-620,-9,-733,995,0
96173244,-1349,11649,-5747,0.274394553,-0.657327348,-0.767025751,0.627962913,-0.339328999,6300,530,10104,2547,782,-660,-17,-769,971,0
96193244,-1089,13799,-5986,0.270351864,-0.592583973,-0.85083751,0.571189947,-0.315930653,6876,3120,7694,2967,1090,-864,23,-781,959,0
96213244,-3748,14873,-9150,0.263964031,-0.526855597,-0.930019795,0.513134804,-0.29240788,1184,3440,-940,3078,1050,-1060,7,-797,930,0
96233244,-7729,14833,-11178,0.263047367,-0.47165929,-0.989501388,0.465315431,-0.276488351,-6950,2156,-6928,2528,1105,-894,9,-825,887,0
96253244,-7706,14506,-8897,0.271408003,-0.429179348,-1.027386188,0.430848375,-0.270701677,-6654,874,-3748,1728,1292,-487,35,-813,858,0
96273244,-4558,15305,-5635,0.280508559,-0.386003412,-1.062291419,0.395533232,-0.26838682,84,1974,1430,1591,1331,-194,33,-821,838,0
96293244,-2744,16116,-3990,0.284386845,-0.337080391,-1.102870539,0.354635091,-0.263110789,3952,3040,3194,1688,1395,-231,51,-837,831,0
96313244,-3894,16646,-5450,0.284181677,-0.289249636,-1.141732902,0.315218411,-0.255515553,1596,3486,-1402,1725,1478,-428,37,-845,796,0
96333244,-5294,17336,-7023,0.287541494,-0.253074566,-1.165949991,0.289445255,-0.250923755,-1148,4506,-5832,1233,1710,-335,35,-851,769,0
96353244,-5424,16555,-5653,0.28695376,-0.221544849,-1.187795011,0.266992074,-0.24491293,-1452,2674,-4108,1042,1536,-428,47,-845,772,0
96373244,-7129,15150,-2517,0.293795144,-0.189154554,-1.201687719,0.246446008,-0.246915774,-4754,-310,1226,849,1712,-247,51,-863,753,0
96393244,-10192,13391,-1272,0.324689759,-0.152480761,-1.192730004,0.231728854,-0.272373173,-10030,-3788,2552,776,2318,526,55,-843,724,0
96413244,-5845,16963,-2637,0.361070242,-0.115676062,-1.171327777,0.226286169,-0.302144939,172,3690,-1432,565,2908,1188,59,-833,715,0
96433244,-3369,18907,-5397,0.379385948,-0.087785959,-1.161011086,0.224261671,-0.316004425,5896,7792,-8066,478,2526,791,51,-847,703,0
96453244,-5724,17524,-2857,0.381794862,-0.065250404,-1.163299026,0.217811443,-0.317671485,1142,4968,-3642,390,1787,61,47,-829,681,0
96473244,-9152,14021,1664,0.392038859,-0.032641741,-1.157105262,0.210368209,-0.329453923,-5608,-2048,4554,363,2209,119,57,-829,654,0
96493244,-10127,13774,3376,0.419582363,0.013108324,-1.129038351,0.207816597,-0.361309547,-6660,-2200,6548,546,2866,946,37,-835,651,0
96513244,-11594,15316,-449,0.456912849,0.059483511,-1.084365202,0.219430629,-0.401382441,-8336,1530,-2862,627,3292,1614,11,-823,643,0
96533244,-9944,17744,-4111,0.483243674,0.097784465,-1.048206488,0.242890533,-0.424959498,-4018,7026,-11360,-105,3537,1529,5,-831,644,0
96553244,-11020,16684,-4242,0.501750745,0.125415972,-1.021264556,0.273876179,-0.434831651,-5632,5382,-12858,-251,3580,1253,9,-833,628,0
96573244,-13077,14217,1644,0.528387345,0.173046287,-0.975388748,0.304041587,-0.461029831,-8946,1150,-2390,173,3697,1720,19,-811,616,0
96593244,-10337,13993,5273,0.55458897,0.237012668,-0.918161771,0.334399726,-0.49705633,-2450,1862,2876,612,3861,2269,7,-811,591,0
96613244,-10445,15360,2731,0.574643705,0.301647685,-0.860125665,0.370162828,-0.528227666,-1990,5872,-4498,757,3962,2440,-11,-801,554,0
96633244,-10711,14870,1938,0.586529907,0.367274357,-0.802673456,0.407286938,-0.554490374,-2156,6204,-8334,924,3953,2431,-25,-783,539,0
96653244,-10998,13784,4561,0.586453538,0.432600986,-0.750766914,0.443529349,-0.572795112,-2742,5226,-5164,794,3947,2217,-29,-773,512,0
96673244,-12502,11030,8648,0.579128489,0.502953794,-0.693235921,0.485115677,-0.588044245,-6046,992,836,756,4139,2315,-31,-749,519,0
96693244,-12345,10553,10975,0.56568215,0.579401305,-0.62417003,0.531827901,-0.604261674,-6102,1864,3012,1198,4166,2740,-9,-733,483,0
96713244,-10982,11565,9358,0.546543621,0.651892126,-0.551023523,0.578958519,-0.616780506,-4038,6016,-2734,1677,3935,2863,-1,-715,459,0
96733244,-8048,10996,8403,0.516138833,0.714357225,-0.489992817,0.617875967,-0.621659951,864,6748,-6728,1655,3610,2485,-7,-687,412,0
96753244,-6507,8009,9845,0.480436929,0.765672706,-0.439938035,0.649730094,-0.621094259,2788,2164,-5446,1355,3133,2011,39,-671,401,0
96773244,-7705,6812,12472,0.446012266,0.80828961,-0.39274024,0.679624893,-0.617220344,-778,1072,-1544,1215,2717,1803,35,-673,363,0
96793244,-9304,6340,14055,0.408680268,0.84775137,-0.34325796,0.710725572,-0.608883932,-5296,1644,282,1356,2800,1868,55,-643,358,0
96813244,-7984,7118,14005,0.359473076,0.886653945,-0.293824506,0.743355438,-0.594170416,-4260,4840,-1114,1488,3176,2046,53,-633,363,0
96833244,-6334,6282,12998,0.303637706,0.919268008,-0.252105248,0.772175906,-0.575506316,-2798,4522,-4196,1359,3200,1863,87,-611,329,0
96853244,-4098,5160,13421,0.240679059,0.947652845,-0.210545041,0.797117844,-0.557246953,-328,3592,-4246,1481,3190,1665,109,-611,321,0
96873244,-4006,2487,14464,0.178265691,0.969357185,-0.169232778,0.819929659,-0.537846871,-2246,-560,-2850,1415,3048,1498,141,-579,301,0
96893244,-3306,2367,16899,0.115759298,0.985140866,-0.1268237,0.841029901,-0.516296523,-2886,590,1506,1564,2906,1441,179,-553,297,0
96913244,-2897,3441,15905,0.057430319,0.994745476,-0.084649383,0.860451691,-0.492540585,-4028,4228,-804,1781,2684,1388,191,-531,281,0
96933248,-1230,1956,15084,0.000449747,0.999057334,-0.043348894,0.880617296,-0.461391123,-2526,2574,-2574,1766,2520,1558,215,-519,295,0
96953248,1288,1136,15473,-0.059857981,0.998194268,-0.003643767,0.899712771,-0.425524373,632,2220,-1766,1770,2461,1609,245,-501,302,0
96973248,1293,-397,15800,-0.114478217,0.992695583,0.037453358,0.915004704,-0.390136603,-1182,440,-930,1831,2219,1425,259,-473,287,0
96993248,577,-1498,15178,-0.163058329,0.983736154,0.074684097,0.92810626,-0.352260683,-4322,-570,-1862,1727,2072,1419,289,-475,296,0
97013248,314,-1922,16530,-0.203091335,0.973619565,0.103349753,0.941437628,-0.307161525,-6218,-474,1192,1513,1739,1693,321,-459,290,0
97033248,1743,272,17655,-0.255885562,0.957967324,0.128957469,0.955248093,-0.250084566,-5068,4904,3980,1769,2166,2066,351,-441,300,0
97053248,4468,-1602,15883,-0.322504362,0.933235077,0.157542776,0.964986466,-0.190253604,-1710,2008,1216,1933,2628,2009,353,-433,320,0
97073248,5441,-2476,15075,-0.394724293,0.900266407,0.182786522,0.970887743,-0.129305273,-2146,1048,688,1932,2924,1946,381,-439,327,0
97093248,6282,-2296,16166,-0.46884466,0.859328669,0.203388695,0.973501587,-0.066154839,-2946,2114,4258,2007,3155,1928,399,-421,330,0
97113248,5399,-3780,13860,-0.540736195,0.809573306,0.227619968,0.97076562,-0.000777163,-7152,-168,1320,2255,3305,1825,451,-399,353,0
97133248,6722,-3308,10840,-0.608770723,0.754267883,0.244989728,0.963881323,0.076861283,-6664,1348,-2938,2492,3046,2170,473,-395,386,0
97153248,9744,-3732,9278,-0.663496291,0.702829203,0.255402805,0.952701813,0.151267614,-2296,828,-4466,2353,2347,2032,525,-395,406,0
97173248,11097,-3418,10547,-0.710940389,0.653035028,0.25933934,0.93815811,0.220971342,-1154,1596,-276,2214,2134,1912,513,-401,408,0
97193248,9902,-4341,11318,-0.757211631,0.600071307,0.255571535,0.920009838,0.291550895,-5176,-408,3132,2210,2379,2104,527,-377,402,0
97213248,13195,-4215,9512,-0.802772582,0.540046677,0.249243134,0.892147446,0.372901311,6,-326,1374,2704,2272,2274,559,-393,446,0
97233248,12031,-77,7925,-0.832350321,0.499867074,0.234345256,0.858391397,0.453344814,-3254,7692,-428,2855,1251,2179,575,-401,465,0
97253248,16075,-2342,2937,-0.860812487,0.447199954,0.23785422,0.821256498,0.516685037,4050,3128,-9000,2679,1427,1221,593,-377,471,0
97273248,15310,-3267,4405,-0.884970119,0.399839906,0.232355356,0.794080188,0.559937041,1648,1046,-4394,1772,1565,1065,581,-379,448,0
97293248,13957,-5205,9643,-0.906853652,0.352044886,0.223983195,0.763454238,0.604275143,-1942,-3198,7980,1938,1957,1269,621,-381,515,0
97313248,13804,-4185,4740,-0.928778861,0.29873722,0.209809958,0.726757359,0.652759306,-2894,-1600,-260,2142,1880,1452,629,-387,532,0
97333248,14955,-2965,3055,-0.946106162,0.253865054,0.189167105,0.691062149,0.696425423,-1128,238,-2198,1982,1502,1455,633,-393,524,0
97353248,15258,-3410,4168,-0.958604079,0.218283527,0.168691289,0.656957243,0.733780555,-934,-1328,1218,1821,1196,1322,639,-395,571,0
97373248,14588,-4457,6072,-0.968536302,0.186138868,0.148227563,0.620752532,0.76896034,-2654,-4196,6262,1869,1295,1395,633,-387,554,0
97393248,12824,-4248,4685,-0.978201376,0.149424415,0.123489293,0.577623015,0.806162622,-6498,-4632,4692,2133,1470,1603,649,-411,569,0
97413248,12794,-886,963,-0.987684514,0.109627841,0.080048407,0.537141487,0.839040032,-6830,852,-1620,1892,1452,2031,651,-397,603,0
97433248,15712,328,1910,-0.993441777,0.076306742,0.031024644,0.496334972,0.86705495,-1178,1692,1376,1851,1278,2154,653,-415,619,0
97453248,15147,-508,310,-0.995973347,0.038398808,-0.009092607,0.457385575,0.888800552,-2382,-1328,-608,1747,1517,1753,653,-453,650,0
97473248,15342,805,186,-0.994880281,0.007235004,-0.058383362,0.413250513,0.908402948,-1968,-306,184,1945,1340,2053,653,-469,667,0
97493248,14250,2092,-3195,-0.989886312,-0.021677004,-0.114514108,0.369236957,0.922010891,-3988,464,-5828,1937,1103,2241,649,-475,646,0
97513248,12291,2438,-1285,-0.97974631,-0.009823803,-0.183132189,0.32629854,0.927293312,-7582,-1104,-2188,1787,-211,2768,665,-487,652,0
97533248,13441,3608,1918,-0.964393891,0.015998214,-0.253721904,0.277940229,0.926956249,-4782,-1016,3492,1859,-509,2868,649,-507,664,0
97553248,15823,3746,-1201,-0.947716776,0.03545781,-0.311690093,0.233529564,0.922439,574,-2646,-3628,1695,-469,2506,639,-539,643,0
97573248,14318,6751,-378,-0.923884422,0.074744962,-0.375709438,0.204096768,0.907238826,-1698,1520,-3258,944,-1495,2592,613,-565,635,0
97593248,10243,4596,1955,-0.895153088,0.126710799,-0.433896869,0.165375089,0.891725909,-8898,-4608,-194,1178,-1808,2517,599,-583,596,0
97613248,11427,7995,3774,-0.851540443,0.193255585,-0.502610196,0.12430582,0.866945772,-5172,238,1344,965,-2497,2917,561,-603,569,0
97633248,18349,14229,1339,-0.809495864,0.245380653,-0.556946452,0.085798573,0.843902402,10126,11106,-5322,860,-2029,2514,547,-645,546,0
97653248,13050,7861,3893,-0.767130524,0.309686285,-0.591463405,0.042649239,0.828321975,936,-2600,-2342,1176,-2536,1928,519,-639,542,0
97673248,6373,6728,9061,-0.703700192,0.402011869,-0.62156439,-0.029527389,0.811634881,-10392,-5692,5014,2135,-3442,2387,485,-639,478,0
97693248,8827,8703,2221,-0.652841508,0.455007277,-0.646698651,-0.065622672,0.794498794,-3772,-2368,-10442,755,-2520,1681,443,-637,449,0
97713248,8460,8003,7394,-0.591783235,0.507139577,-0.673760423,-0.094762109,0.77473719,-2502,-4492,-1790,335,-3062,1669,419,-645,443,0
97733248,8102,6601,9627,-0.533535898,0.55819739,-0.685476473,-0.126826227,0.762596857,-1262,-7730,1116,485,-2869,1439,359,-659,435,0
97753248,6261,7093,9707,-0.464484051,0.601473985,-0.704874434,-0.164051101,0.742661357,-2724,-7196,-152,320,-2826,1843,345,-675,422,0
97773248,11275,11524,11130,-0.405462194,0.624407824,-0.728452116,-0.186754419,0.721152773,9418,1138,1770,-129,-2504,1646,285,-667,391,0
97793248,10841,12688,14156,-0.346574856,0.64589156,-0.745673319,-0.207166569,0.703392234,10310,3118,7162,-75,-2480,1225,279,-673,416,0
97813248,3518,12530,13095,-0.296845261,0.664848916,-0.752982688,-0.227216873,0.691878073,-2804,2634,4458,119,-1985,878,243,-675,384,0
97833248,5309,12629,14240,-0.256159378,0.68417391,-0.749544947,-0.248670224,0.686944835,2222,2908,6076,473,-1671,788,239,-663,387,0
97853248,5799,11791,14038,-0.225744251,0.701581953,-0.740128347,-0.264854945,0.687702795,4270,1418,5118,509,-1401,536,197,-677,376,0
97873248,4376,11937,11846,-0.195748352,0.724888956,-0.719567668,-0.284239586,0.694828136,2352,2278,-72,1024,-1391,385,177,-663,358,0
97893248,2842,10739,11056,-0.164463036,0.742153138,-0.705486413,-0.295377001,0.700221419,296,232,-2216,678,-1574,196,155,-667,368,0
97913248,2292,10172,12337,-0.131358054,0.763100736,-0.683526045,-0.310249411,0.709197393,276,-360,-330,980,-1593,242,117,-667,379,0
97933248,1607,9052,17245,-0.093086801,0.795627294,-0.640324922,-0.336564951,0.726603894,150,-1614,8518,1668,-1639,445,121,-657,361,0
97953248,573,9311,16762,-0.050216317,0.836347532,-0.576238973,-0.370450644,0.751122763,-524,680,6164,2604,-1703,581,99,-609,340,0
97973248,-323,9084,14632,-0.007007038,0.873643722,-0.507088685,-0.403357612,0.774553519,-888,2242,634,2882,-1642,668,83,-613,329,0
97993248,1906,10439,15635,0.026675571,0.906007063,-0.435285304,-0.432133902,0.796291228,4810,7172,1526,3123,-1342,730,59,-559,325,0
98013248,8534,10971,13437,0.031567274,0.932905054,-0.366239145,-0.433795493,0.826081809,18560,10450,-3774,3188,-912,-181,49,-495,313,0
98033248,-2258,4897,14815,0.055946803,0.956605857,-0.28947714,-0.444279842,0.848593757,-2770,450,-1728,3176,-913,73,11,-489,312,0
98053248,-644,2937,19213,0.061746921,0.973894041,-0.219809302,-0.451279616,0.864811456,764,-1346,6528,2768,-246,134,1,-445,319,0
98073248,1433,2940,20424,0.064283028,0.988247737,-0.138847538,-0.451405182,0.881066665,4974,1334,8464,3324,-120,-76,-5,-431,317,0
98093248,1763,3538,16905,0.060226327,0.996799899,-0.052380847,-0.436713947,0.897692678,5660,5508,1146,3770,-87,-575,3,-371,298,0
98113248,4717,4298,18816,0.04698476,0.998723259,0.018322761,-0.404551251,0.914015075,11250,9426,4924,3261,179,-1277,29,-341,330,0
98133248,-2664,277,15591,0.068496913,0.993085116,0.095242393,-0.357833058,0.928672761,-3180,3788,-1356,3392,-649,-1773,5,-307,324,0
98153248,-8785,-4410,15080,0.124578215,0.978006138,0.167625654,-0.33023154,0.928779526,-13850,-3432,-1948,2929,-1754,-699,-1,-273,341,0
98173248,-1889,-5647,17283,0.143907806,0.962106941,0.233159922,-0.3132948,0.920829816,982,-3792,3026,2640,-820,-183,-35,-241,341,0
98193248,2338,-4837,20079,0.17560235,0.935446285,0.311042342,-0.275799401,0.910859084,10438,374,9508,3364,-1133,-768,-41,-203,353,0
98213248,-21542,-20123,11516,0.321126236,0.872492252,0.37597741,-0.215454418,0.904515501,-32490,-28128,-5532,3186,-5968,-1506,-51,-223,368,0
98233248,-6007,-2446,12214,0.383605711,0.821209364,0.434578135,-0.14070227,0.895678394,534,9178,-2374,3629,-2142,-1622,-99,-173,397,0
98253248,-8736,-7501,14228,0.433180489,0.767740782,0.489865544,-0.093297252,0.876981577,-3294,504,3324,2915,-2172,-512,-121,-169,446,0
98273248,-7335,-8776,10422,0.4759704,0.707280187,0.54781765,-0.040717911,0.852114342,958,-464,-2324,3090,-2013,-500,-141,-167,468,0
98293248,-7657,-9022,10547,0.521256113,0.638196556,0.599724851,0.008020218,0.824737918,1816,494,216,2896,-2505,-303,-161,-129,527,0
98313248,-5645,-8109,9178,0.55966378,0.571630206,0.640554784,0.0501047,0.799365204,7214,3392,-232,2502,-2576,-280,-183,-131,524,0
98333248,-8599,-8782,9416,0.608300816,0.490960464,0.669910103,0.09655723,0.776951989,2836,2886,2910,2406,-3354,-421,-197,-117,587,0
98353248,-12204,-10733,8091,0.644907597,0.405756962,0.700495408,0.139114026,0.750656288,-3234,-276,2944,2293,-3239,-38,-213,-95,605,0
98373248,-11887,-11418,5148,0.67678331,0.293573108,0.736433136,0.179518847,0.717491325,-1512,-734,770,2384,-4523,437,-231,-95,651,0
98393248,-9784,-10652,879,0.694097646,0.15728607,0.773634653,0.217952088,0.679900274,3320,1684,-3334,2232,-5672,816,-221,-89,700,0
98413248,-8840,-10796,3197,0.689015316,0.035299866,0.802968168,0.2488748,0.646632819,5080,2064,5602,1971,-5490,890,-213,-87,773,0
98433248,-12616,-13156,1909,0.670893462,-0.066839296,0.82383059,0.28534296,0.614525121,-3198,-2180,6300,2032,-4248,937,-191,-69,827,0
98453248,-13490,-13789,1825,0.639564097,-0.161763266,0.842612678,0.32183554,0.580128483,-6032,-3028,9330,2046,-4060,1187,-171,-55,884,0
98473248,-10087,-11105,-2000,0.59674906,-0.24904225,0.859216001,0.3704537,0.534898624,-644,2692,4386,2424,-3035,1585,-145,-69,947,0
98493248,-6850,-11086,-5890,0.544664884,-0.338561716,0.865664066,0.425224211,0.485678505,4254,2832,-646,2489,-2907,1552,-123,-79,975,0
98513248,-7320,-12562,-6555,0.494255694,-0.409234339,0.864500002,0.468423277,0.445061397,1600,-152,394,2006,-2612,1379,-95,-93,1015,0
98533248,-8856,-13921,-6832,0.432807891,-0.481434004,0.856670488,0.514450511,0.400394378,-3560,-3046,2328,2221,-2977,1628,-77,-79,1037,0
98553248,-6317,-13223,-8900,0.356786927,-0.553139212,0.84189209,0.564484304,0.347314518,-914,-1942,482,2294,-3077,1980,-15,-127,1056,0
98573248,-3659,-11332,-10264,0.283417486,-0.612014957,0.819753543,0.610353902,0.297387809,2006,1346,-366,2086,-2638,1909,35,-105,1071,0
98593248,-2931,-12070,-10448,0.223504782,-0.651968792,0.799366569,0.644324644,0.256754806,1484,-624,546,1572,-1974,1606,81,-143,1104,0
98613248,-3621,-12606,-9597,0.162161134,-0.683064986,0.781166634,0.671661578,0.218700539,-1984,-2182,3356,1383,-2130,1600,87,-151,1131,0
98633248,-1517,-12161,-9752,0.092385493,-0.712438166,0.757822201,0.700886931,0.175506128,-10,-1854,4018,1477,-2254,1809,123,-171,1138,0
98653248,1483,-9609,-10144,0.014611306,-0.741594935,0.723503727,0.7343149,0.12938052,3562,2490,4132,1613,-2355,1913,167,-169,1151,0
98673248,2669,-9092,-11887,-0.049278744,-0.766064513,0.683530446,0.765965803,0.091367429,3842,2568,1388,1568,-1807,1660,193,-181,1155,0
98693248,317,-10467,-13885,-0.099826902,-0.780527867,0.652660902,0.78790234,0.063935511,-2722,-1008,-2156,1142,-1670,1382,237,-209,1153,0
98713248,-104,-11647,-13091,-0.149359552,-0.790537143,0.623301806,0.807314534,0.03192576,-5262,-4236,-190,1104,-1546,1650,257,-239,1174,0
98733248,2352,-10082,-11798,-0.215440111,-0.796780009,0.586953019,0.828527438,-0.008870918,-2432,-2078,2642,1214,-2018,2030,277,-243,1166,0
98753248,4612,-7273,-10382,-0.289573317,-0.801782722,0.536276619,0.853910612,-0.05137888,-270,2218,5634,1503,-2243,2230,311,-259,1183,0
98773248,7538,-6981,-12554,-0.356621984,-0.801729575,0.485659971,0.875740472,-0.088542486,3480,1392,1280,1385,-1981,2023,331,-281,1155,0
98793248,4192,-7374,-12906,-0.405102476,-0.800786152,0.441403186,0.89217444,-0.118267799,-5036,-786,460,1204,-1597,1886,361,-319,1140,0
98813248,3606,-8362,-10995,-0.440584274,-0.806007037,0.389428775,0.908072177,-0.153420068,-7416,-4482,4504,1505,-881,2353,383,-313,1151,0
98833248,6116,-5351,-9409,-0.480012408,-0.813230086,0.315124882,0.926070301,-0.19570064,-3530,-526,7942,1890,-765,2846,403,-349,1145,0
98853248,7582,-2582,-10008,-0.520020667,-0.814310441,0.235662304,0.939339083,-0.234494152,-1914,2502,6784,2044,-1023,2899,407,-387,1149,0
98873252,8351,1560,-9705,-0.547694098,-0.816723766,0.144781876,0.947868388,-0.268747481,-1292,7860,7498,2431,-666,3079,429,-423,1147,0
98893252,8388,684,-11024,-0.58274113,-0.804196032,0.040519273,0.949012425,-0.298444496,-2358,2788,4494,2764,-1331,3305,411,-473,1153,0
98913252,10533,4150,-13593,-0.609495394,-0.7826754,-0.063536282,0.939654686,-0.322777458,1026,6384,-1358,2607,-1408,3268,413,-527,1124,0
98933252,11133,5836,-13443,-0.625682613,-0.756453995,-0.157221623,0.922357624,-0.340220587,1698,6690,-1940,2275,-1285,2971,433,-559,1097,0
98953252,10973,6401,-12489,-0.637549408,-0.725104719,-0.239136136,0.901806999,-0.348615356,994,5148,-1090,2045,-1341,2536,423,-583,1109,0
98973252,11019,7520,-11395,-0.644464545,-0.688720973,-0.319884024,0.876720838,-0.351168903,864,4832,-84,2032,-1369,2464,429,-617,1088,0
98993252,10561,8201,-8395,-0.648682784,-0.644555496,-0.40152991,0.848920539,-0.342921294,-148,3702,4532,2181,-1403,2306,407,-667,1045,0
99013252,9313,7572,-9117,-0.644564345,-0.600372249,-0.480106966,0.817637339,-0.33044582,-2546,-4,1530,2230,-1316,2300,407,-673,1025,0
99033252,13516,8796,-12724,-0.639734009,-0.552419202,-0.552113569,0.783660302,-0.319184113,6030,374,-7262,1914,-1576,2253,397,-737,1014,0
99053252,10865,9931,-10150,-0.641959891,-0.499935165,-0.609732389,0.753576212,-0.308945395,624,1050,-3908,1510,-2172,1857,395,-731,984,0
99073252,9335,9377,-4701,-0.640561357,-0.445541147,-0.66570004,0.723225921,-0.294595141,-2324,-1462,5370,1327,-2019,1783,381,-761,954,0
99093252,8426,10235,-1816,-0.627381327,-0.387538482,-0.732289355,0.687252248,-0.268823767,-3712,-1348,9364,1625,-1632,1966,377,-773,927,0
99113252,7297,11190,586,-0.605022028,-0.326340564,-0.803830307,0.648631468,-0.229103632,-5274,-1076,12266,1948,-1172,1911,351,-787,913,0
99133252,7701,10975,208,-0.576823974,-0.261888565,-0.876115129,0.608496465,-0.177786309,-3510,-3184,9324,2390,-891,1941,351,-817,869,0
99153252,9526,13809,-3030,-0.54576043,-0.208600909,-0.938340686,0.569251375,-0.133501487,1148,1154,836,2227,-734,1835,331,-819,830,0
99173252,9165,14683,-2247,-0.516682753,-0.167301791,-0.988162278,0.534399532,-0.099113852,1384,1982,1030,1705,-524,1568,305,-819,816,0
99193252,7302,14852,-545,-0.479984786,-0.133655615,-1.040363759,0.493729962,-0.070080789,-1176,1452,3418,1389,-160,1735,285,-827,787,0
99213252,6147,14561,2291,-0.435084376,-0.097366042,-1.099514297,0.44490869,-0.035367377,-2016,-54,8040,1504,248,1999,261,-831,777,0
99233252,7521,16032,1616,-0.392812936,-0.067944566,-1.151012559,0.399193911,-0.002237955,2188,2110,5648,1503,812,1872,267,-853,774,0
99253252,5845,16306,385,-0.344800808,-0.055363836,-1.203392552,0.34929122,0.02152398,366,1994,2712,1301,2067,1956,213,-849,745,0
99273252,3756,16209,-551,-0.304389928,-0.039015541,-1.24682096,0.304529358,0.04489818,-2554,1338,226,1398,1962,1539,213,-863,731,0
99293252,3294,14928,-1585,-0.267444666,-0.022377061,-1.285989787,0.262055177,0.062690204,-2240,-1608,-2486,1326,1629,1452,187,-865,713,0
99313252,4949,17979,-1468,-0.233175918,-0.009401539,-1.320791083,0.223296896,0.071696257,2280,4180,-2676,976,1219,1463,193,-841,698,0
99333252,6664,19594,2529,-0.206458166,0.006424557,-1.346656813,0.188823251,0.086936241,6554,7210,4876,1120,1912,1112,181,-835,707,0
99353252,2798,16260,3197,-0.183069037,0.047039118,-1.363982062,0.147620535,0.120120417,-424,420,5020,1763,1174,987,163,-821,693,0
99373252,618,14474,3221,-0.155474607,0.093847923,-1.37159133,0.09889791,0.15364523,-3978,-3196,3518,1959,899,1068,147,-837,647,0
99393252,264,15334,3828,-0.119667534,0.135364279,-1.373195688,0.044657562,0.175856933,-3498,-1492,3348,1704,685,1439,147,-831,641,0
99413252,3934,17386,3394,-0.090930015,0.1678195,-1.3643172,-0.000948496,0.191281527,5008,2662,1326,1438,892,1488,119,-821,630,0
99433252,3876,17607,4883,-0.070135584,0.209610885,-1.335728649,-0.045112602,0.216489002,5584,3300,2970,1762,869,1208,117,-827,620,0
99453252,722,15012,7902,-0.049069211,0.264725313,-1.288822223,-0.097399669,0.250813013,-174,-1532,7354,2124,793,1073,105,-803,551,0
99473252,-1222,16113,6394,-0.030329581,0.318811027,-1.237282309,-0.160273358,0.276745846,-3542,1186,2438,2358,2421,1408,101,-791,566,0
99493252,-2288,14672,7438,-0.029832903,0.366214793,-1.188352976,-0.228783393,0.286575196,-5726,-1244,3074,2137,5200,1689,105,-777,513,0
99513252,2612,17140,8785,-0.076427707,0.399142852,-1.147516553,-0.287829708,0.28572353,2706,4032,4748,1961,8709,1576,117,-771,505,0
99533252,5742,15162,384,-0.098387014,0.41904553,-1.121257187,-0.316681696,0.290178044,8514,886,-13268,1653,2986,739,171,-745,471,0
99553252,2759,14066,6526,-0.105177965,0.454421304,-1.081097821,-0.357815819,0.297440579,2134,-810,-1856,1856,1589,571,203,-739,453,0
99573252,-3465,10486,8543,-0.092074078,0.489422135,-1.045463549,-0.406775257,0.284862591,-10280,-7454,1218,1596,1450,926,195,-721,416,0
99593252,-5200,10078,8144,-0.056231694,0.51653417,-1.020706368,-0.459404975,0.238774996,-12662,-7858,-498,1290,1709,2091,189,-711,414,0
99613252,6452,18958,6076,-0.022987619,0.534487188,-1.002820144,-0.50236392,0.177228354,12146,10234,-5332,988,2164,2930,189,-707,422,0
99633252,10580,18264,7872,-0.025522545,0.551904287,-0.9821255,-0.527675048,0.155243095,20320,9252,-2330,926,1931,1132,195,-687,436,0
99653252,2260,12231,9408,-0.044773297,0.571093312,-0.957759451,-0.549157221,0.154205315,3150,-2382,142,983,1639,323,207,-693,421,0
99673252,-5437,8158,9753,-0.030691622,0.590033423,-0.935861899,-0.57770749,0.110261401,-12298,-10208,370,799,2041,1525,205,-683,423,0
99693252,-3375,12230,7842,-0.00087966,0.601003252,-0.923264151,-0.596599493,0.038927361,-7006,-1684,-4042,719,2126,2745,207,-679,390,0
99713252,2054,15509,7569,0.018553114,0.606227275,-0.916488832,-0.602510175,-0.027116869,4848,5088,-4856,501,2144,2838,213,-679,427,0
99733252,3274,16758,5066,0.02468786,0.605489833,-0.917199927,-0.597502246,-0.076866025,7560,7674,-9956,337,2100,2253,215,-665,427,0
99753252,-2891,14250,5299,0.033900246,0.599356055,-0.924248892,-0.582864078,-0.12659237,-4826,2470,-9246,-20,2252,1949,203,-677,402,0
99773252,-5223,11991,10754,0.06162332,0.600959821,-0.919330907,-0.568143204,-0.191764908,-8672,-2180,1890,-88,1940,2484,223,-687,407,0
99793252,-2526,12399,13809,0.075564999,0.614593234,-0.900404891,-0.553736586,-0.266339842,-2632,-1060,7646,248,3146,3022,229,-681,407,0
99813252,1370,14673,10913,0.063109651,0.63901506,-0.871132908,-0.541175455,-0.336261217,4950,4212,900,970,4242,2994,241,-679,398,0
99833252,665,15283,7226,0.038939763,0.65945464,-0.847072729,-0.52327566,-0.39512361,2686,6096,-7316,1153,4321,2555,243,-667,407,0
99853252,-2918,11699,7889,7.86E-06,0.679967484,-0.821044145,-0.499802366,-0.453179076,-6040,-612,-6556,1208,5258,2296,271,-689,386,0
99873252,-190,12524,9186,-0.022255283,0.702793881,-0.789051114,-0.477869086,-0.508116016,-1148,1820,-4730,1540,3632,2181,299,-665,399,0
99893252,2236,15521,10642,-0.056563266,0.720099708,-0.761881161,-0.448025815,-0.559415692,2672,8482,-2420,1502,4078,2281,319,-675,396,0
99913252,1439,16576,8169,-0.102984292,0.728147229,-0.742886887,-0.41206025,-0.602416549,-532,11152,-7720,1471,4585,2098,349,-665,427,0
99933252,-370,15482,7541,-0.143730901,0.724718673,-0.737741625,-0.366932563,-0.634664046,-5620,9114,-8856,1054,4402,2043,383,-669,403,0
99953252,-527,12630,12329,-0.177778229,0.727806728,-0.722096484,-0.322694199,-0.669185886,-7102,3594,828,1210,3984,1890,379,-681,433,0
99973252,3834,11148,12939,-0.223617345,0.732215129,-0.696994359,-0.28069666,-0.705470122,310,1184,1918,1581,4177,1814,419,-661,454,0
99993252,5864,11915,12257,-0.265915098,0.73992045,-0.664294738,-0.240846934,-0.741843048,3006,3584,274,1957,3599,1518,419,-651,456,0
100013252,6579,12478,11100,-0.308009975,0.746417401,-0.629211341,-0.205628648,-0.774486573,3102,5740,-2356,2178,3106,1131,457,-643,435,0
100033252,5400,11437,11171,-0.342464291,0.755700454,-0.590513906,-0.17270764,-0.805092014,-466,4718,-2490,2279,2486,781,459,-643,450,0
100053252,6156,10919,10676,-0.375422183,0.761499977,-0.554919657,-0.140947606,-0.830913499,-8,4690,-3692,2163,2217,652,473,-625,447,0
100073252,5155,10195,12886,-0.403127261,0.767085724,-0.520701606,-0.111978557,-0.852909222,-3016,4166,634,1956,1913,422,461,-627,467,0
100093252,6330,7386,13726,-0.432688458,0.773533149,-0.47958653,-0.074496804,-0.876871604,-1556,-376,2126,2256,1972,624,501,-609,460,0
100113252,1970,9439,16823,-0.453718755,0.784087023,-0.435392939,-0.009306896,-0.89954678,-11282,5118,8106,2951,2301,1225,515,-589,484,0
100133252,7070,3687,16787,-0.476894554,0.794754766,-0.382860415,0.043382403,-0.919604279,-1598,-5052,7668,2729,1732,800,527,-579,457,0
100153252,10411,4177,13499,-0.503690442,0.798644092,-0.333425083,0.08525184,-0.93415584,4384,-2470,814,2528,1423,452,531,-565,470,0
100173252,9902,7530,12335,-0.535867555,0.793604311,-0.289759981,0.126226259,-0.94299579,2252,5828,-1402,2564,1703,308,521,-557,465,0
100193252,7447,8261,11668,-0.574933842,0.778487949,-0.251459164,0.171616927,-0.946298214,-4068,8622,-2182,2610,2279,365,551,-539,474,0
100213252,6267,6707,12907,-0.604590874,0.768118318,-0.20861359,0.219198557,-0.946500251,-7492,6838,738,2755,1918,238,563,-529,482,0
100233252,12960,4597,10215,-0.643313296,0.747777237,-0.159792937,0.265357696,-0.944178181,4928,4082,-4192,2857,1888,111,575,-505,474,0
100253252,14747,1922,7072,-0.677317398,0.727167098,-0.103885546,0.297856921,-0.942503231,7530,462,-9918,2628,1334,-521,601,-471,497,0
100273252,11336,1351,9707,-0.703052763,0.707951926,-0.050286238,0.322421754,-0.938233459,-384,1066,-3792,2299,1351,-793,595,-473,492,0
100293252,11351,49,12385,-0.71976763,0.692719471,0.002053381,0.34621642,-0.931192772,-922,166,2094,2234,970,-806,613,-439,521,0
100313252,12688,-521,12282,-0.73370458,0.675326897,0.058681161,0.368270544,-0.920917381,1300,892,2452,2327,884,-1004,617,-425,508,0
100333252,14170,-3210,9926,-0.748809721,0.649929609,0.120877051,0.39261161,-0.904770384,3828,-2526,-1512,2514,960,-1053,621,-385,505,0
100353252,12616,-3339,10753,-0.754886404,0.627255123,0.186003086,0.413263852,-0.884525837,458,-616,970,2572,710,-1294,613,-375,543,0
100373252,9702,-1988,12768,-0.753090212,0.607479801,0.249917877,0.429516602,-0.861255504,-5436,4254,5848,2589,652,-1447,633,-319,564,0
100393252,10885,-3488,7503,-0.754659774,0.576307354,0.314147613,0.446539756,-0.832279809,-2980,3180,-3870,2553,730,-1359,635,-297,556,0
100413252,13332,-7010,6739,-0.748863894,0.549708597,0.374838903,0.456984652,-0.803240517,2166,-2072,-4654,2156,264,-1374,615,-299,574,0
100433252,11799,-8076,8912,-0.734658778,0.528737199,0.434955306,0.464885324,-0.771006126,-516,-2348,512,2205,-7,-1400,609,-265,575,0
100453252,13202,-6881,9778,-0.719723986,0.503904944,0.493947687,0.472231762,-0.735305125,2816,1876,3108,2321,46,-1453,611,-251,569,0
100473252,10784,-7853,5786,-0.698385485,0.474652706,0.561375162,0.473071687,-0.693766147,-1304,1754,-4036,2314,-79,-1733,617,-207,591,0
100493252,11719,-8857,5384,-0.676770858,0.451599829,0.61655448,0.473467521,-0.655998066,1316,1258,-4120,1947,-379,-1415,585,-209,604,0
100513252,12481,-9694,6969,-0.651152242,0.424920481,0.676066306,0.468601834,-0.614741776,3670,1200,16,2074,-262,-1664,583,-181,594,0
100533252,8519,-9726,10164,-0.618371543,0.399995074,0.73890274,0.457353059,-0.57153427,-3330,2704,7472,2232,-225,-1742,549,-147,613,0
100553252,5556,-8818,10660,-0.583094057,0.369704297,0.804518182,0.447938945,-0.519708941,-8180,6070,9610,2702,-292,-1606,543,-135,640,0
100573252,7904,-9245,9374,-0.559469201,0.339662578,0.852755131,0.449498482,-0.469943587,-2566,6330,7930,2563,-527,-1005,531,-107,628,0
100593252,10039,-11538,386,-0.549856009,0.283457782,0.899115956,0.460191542,-0.408048112,2168,2596,-8742,2552,54,-728,539,-99,640,0
100613252,10851,-13530,2722,-0.531137835,0.246878674,0.939677623,0.462526355,-0.353636578,4364,-542,-2708,2253,-728,-832,517,-95,657,0
100633252,10132,-14512,6733,-0.507244285,0.213786637,0.982159764,0.458249379,-0.299275644,3654,-1684,6632,2438,-890,-973,527,-81,672,0
100653252,8247,-13714,5563,-0.481799645,0.165895311,1.029756318,0.453110682,-0.227380354,686,748,5902,3157,-1019,-1002,495,-65,680,0
100673252,9397,-14386,-1378,-0.462488297,0.101618184,1.070567199,0.450331043,-0.140899004,3700,64,-6206,3377,-1114,-851,499,-47,735,0
100693252,11880,-14975,-6854,-0.44090944,0.039833566,1.104664977,0.438054791,-0.058975467,9466,-560,-15330,2933,-1178,-1130,499,-35,718,0
100713252,6715,-14067,-4007,-0.408290636,-0.013272945,1.141340724,0.408578588,0.009223608,48,1714,-7764,2486,-823,-1468,477,-35,763,0
100733252,3117,-12980,-573,-0.377691073,-0.067185255,1.166976855,0.377037741,0.077373236,-6304,4164,1136,2803,-799,-1192,459,-31,793,0
100753252,3497,-11872,730,-0.36324393,-0.130555395,1.163805845,0.357477227,0.152075386,-4930,6394,5796,3085,-652,-698,465,-17,787,0
100773256,5070,-15082,-5610,-0.349438554,-0.196144182,1.147750174,0.332773296,0.229511525,-1376,-226,-4868,3098,-917,-707,425,-19,792,0
100793256,6406,-13953,-6758,-0.344407609,-0.243767748,1.124602128,0.312540304,0.289598398,1554,1744,-5644,2390,-1195,-563,451,-21,822,0
100813256,6096,-13910,-4756,-0.330758722,-0.296271253,1.099789192,0.288538238,0.343861397,1358,1414,234,2394,18,-621,453,-17,842,0
100833256,3969,-14749,-4233,-0.315987356,-0.354412034,1.065151531,0.266225673,0.399598829,-2494,-858,3280,2625,521,-384,435,-21,878,0
100853256,2473,-12613,-4771,-0.306740796,-0.41345142,1.019058363,0.246380551,0.458612841,-5242,2640,4124,2809,223,-149,431,-39,878,0
100873256,3253,-13523,-8148,-0.306547483,-0.471563447,0.962735904,0.22783524,0.520756152,-3658,-138,-816,2921,-355,-37,457,-51,920,0
100893256,5672,-11969,-9504,-0.3224122,-0.509468229,0.912981167,0.212485321,0.570719479,792,2076,-2332,2358,-1377,-76,439,-75,928,0
100913256,5225,-12516,-8013,-0.332596743,-0.544344265,0.868323232,0.195687288,0.613618953,-462,-10,1866,2235,-882,-61,443,-79,929,0
100933256,3654,-12654,-6123,-0.34202303,-0.578508765,0.823158106,0.177926071,0.654440634,-3994,-1410,6900,2450,-738,96,437,-97,953,0
100953256,5258,-10899,-8998,-0.362844629,-0.619366009,0.759141783,0.161808481,0.705739496,-1398,778,2380,2870,-1007,351,467,-107,996,0
100973256,7261,-11671,-11076,-0.402829556,-0.645981515,0.694095125,0.145920871,0.753539409,1298,-2346,-878,2841,-2039,490,463,-143,996,0
100993256,7450,-5303,-10569,-0.454596987,-0.66657486,0.620091127,0.128997022,0.802701836,56,8664,720,2883,-2444,627,487,-159,1005,0
101013256,6698,-6919,-7813,-0.518398415,-0.674171517,0.541218491,0.115543734,0.848653583,-3640,3092,6624,3112,-2841,1227,491,-163,977,0
101033256,10003,-7827,-13846,-0.578885328,-0.671838332,0.466443181,0.097594747,0.887397392,968,-868,-5552,2948,-2787,1217,531,-191,978,0
101053256,9444,-5262,-12384,-0.640099473,-0.653508011,0.400783921,0.088466845,0.916191649,-2200,2356,-3330,2222,-2936,1437,545,-217,952,0
101073256,10419,-2688,-10132,-0.68289493,-0.643068004,0.336461929,0.081053378,0.940227186,-1546,5600,838,2002,-1798,1471,583,-253,954,0
101093256,12568,-6486,-8534,-0.71482132,-0.634153949,0.279102024,0.0741839,0.958290292,1736,-4054,3880,1987,-1169,1582,593,-311,938,0
101113256,14104,-4026,-12542,-0.765226047,-0.595073501,0.224252185,0.057529498,0.973167976,3066,-746,-5494,1998,-2822,1266,601,-311,921,0
101133256,13702,-1723,-8786,-0.825611787,-0.527797015,0.172271739,0.044487804,0.984138012,280,2254,-138,1652,-3835,1347,633,-337,905,0
101153256,12414,-1037,-8212,-0.864511047,-0.477499131,0.121392575,0.032621648,0.992077898,-3584,1952,-762,1471,-2760,1485,643,-355,887,0
101173256,11265,-802,-6639,-0.902142864,-0.415160615,0.064163912,0.026523551,0.997581383,-7100,500,428,1308,-2985,1970,643,-377,839,0
101193256,14631,-137,-5963,-0.935925525,-0.339241806,0.001028385,0.019376559,0.999811096,-1496,-242,-704,1277,-3405,2274,651,-389,809,0
101213256,18978,1292,-6509,-0.963595223,-0.24613959,-0.050674733,0.011393141,0.998646792,6260,932,-4900,959,-4037,1906,649,-421,754,0
101233256,16831,2293,-4311,-0.979343735,-0.156486779,-0.093240793,0.00361013,0.995635031,1466,1566,-3484,688,-3793,1591,645,-459,690,0
101253256,12107,1945,-2239,-0.984847177,-0.051817823,-0.14297613,-0.008135224,0.989727912,-8170,-796,-2662,722,-4226,1972,633,-481,652,0
101273256,14139,4129,2567,-0.974687885,0.053470474,-0.203167975,-0.01170223,0.979290744,-3798,1700,3610,154,-4172,2363,607,-489,597,0
101293256,19465,4788,1003,-0.959629148,0.127584262,-0.240972533,-0.023132116,0.970729155,7434,1742,-2198,375,-3114,1587,599,-475,579,0
101313256,17586,5503,3095,-0.939245973,0.221649598,-0.254626477,-0.030599978,0.967159193,4316,2746,-1030,237,-3974,597,587,-511,531,0
101333256,13425,6014,3880,-0.915259952,0.290755717,-0.273434031,-0.035085343,0.962075334,-3214,3292,-1766,57,-3045,645,557,-523,506,0
101353256,12262,5242,5509,-0.887026574,0.363393864,-0.280898741,-0.040187005,0.959825238,-4622,1472,-838,147,-3193,262,537,-527,477,0
101373256,13077,1785,7472,-0.854339261,0.434559688,-0.28201557,-0.047085039,0.959198169,-1870,-5718,796,164,-3171,344,501,-521,460,0
101393256,16725,4845,9975,-0.818716519,0.495346278,-0.288407199,-0.053206097,0.957067801,6588,342,3740,109,-2908,376,483,-515,418,0
101413256,14346,5162,8084,-0.784788687,0.551444046,-0.281151454,-0.053012313,0.959128937,2988,1244,-1964,217,-2890,-250,463,-531,406,0
101433256,8848,4193,11897,-0.737365099,0.6206409,-0.264859442,-0.056124045,0.96336716,-6654,-192,3642,474,-3239,-503,443,-521,386,0
101453256,6322,5525,6099,-0.702688172,0.663044058,-0.256501665,-0.065576062,0.964937299,-10400,2730,-9522,531,-2199,9,413,-497,366,0
101473256,11056,3148,11501,-0.641121883,0.722885406,-0.256838013,-0.083020303,0.963500476,1098,-2102,-684,466,-3461,593,365,-499,354,0
101493256,11653,5305,14686,-0.583802827,0.771861635,-0.251370623,-0.100186996,0.963248454,4152,2454,4082,648,-2991,405,329,-505,342,0
101513256,9403,2902,14026,-0.528908104,0.816114753,-0.232251248,-0.110637635,0.966725439,1470,-1806,1320,834,-2861,-58,305,-497,330,0
101533256,2956,3693,12555,-0.483779173,0.852125859,-0.198366438,-0.119065274,0.973038895,-10198,1008,-2692,1418,-1989,-557,281,-503,329,0
101553256,4132,2460,9018,-0.433177855,0.882060848,-0.184161019,-0.128765861,0.974533087,-5946,-1088,-10866,711,-2354,82,251,-473,306,0
101573256,6148,3195,17777,-0.368554585,0.91297028,-0.174280228,-0.148757201,0.973460548,188,698,5646,718,-2789,584,229,-459,296,0
101593256,5076,3052,17731,-0.317191131,0.936053436,-0.151445068,-0.162493385,0.975021016,-268,1160,4792,1088,-2203,191,171,-457,293,0
101613256,2725,3953,15954,-0.272950362,0.954844406,-0.116325084,-0.165215906,0.979334449,-3608,4220,636,1547,-1823,-401,167,-437,300,0
101633256,2950,2718,12800,-0.216416463,0.972531736,-0.084725052,-0.161900798,0.983114121,-1198,2776,-6280,1369,-2439,-492,147,-403,279,0
101653256,-1369,1627,13410,-0.147809003,0.987356853,-0.056545334,-0.162225058,0.985083146,-7832,1464,-5502,1224,-2557,-234,93,-417,285,0
101673256,2998,1314,20224,-0.09402658,0.995056327,-0.031452123,-0.165448755,0.985668372,2910,1596,7840,1048,-2203,14,79,-407,287,0
101693256,2038,1118,18777,-0.034962121,0.999364849,0.006582866,-0.163915332,0.986406725,2998,2518,4804,1643,-2496,-159,35,-395,277,0
101713256,-497,-493,17174,0.049820375,0.996841429,0.061716811,-0.157791309,0.98549556,648,1052,1682,2281,-3449,-210,37,-377,296,0
101733256,-474,296,18087,0.135883078,0.984082362,0.114316632,-0.154590245,0.981308131,3622,4468,3958,2323,-3672,112,-39,-339,312,0
101753256,-3177,-1866,16503,0.222379008,0.959569117,0.172620923,-0.14858928,0.973777156,986,1974,1584,2466,-3695,261,-51,-309,333,0
101773256,-5700,-3591,16932,0.321248963,0.916498354,0.239504618,-0.140632972,0.961087575,-830,634,3846,2720,-4401,540,-119,-281,355,0
101793256,-6972,-5101,15713,0.417935895,0.855561834,0.308840883,-0.130032701,0.943572981,-180,-190,3418,2760,-4688,803,-181,-231,420,0
101813256,-8676,-5913,15655,0.498940259,0.785497278,0.372755331,-0.117542107,0.923605813,-926,174,5614,2508,-4412,943,-191,-221,447,0
101833256,-9663,-6126,14282,0.563037867,0.707130915,0.439455674,-0.099436512,0.899130678,-772,1832,5510,2709,-4152,1134,-229,-179,511,0
101853256,-9631,-6750,10980,0.616299899,0.61041872,0.517789702,-0.063294714,0.866095703,1042,2870,2092,3397,-4160,1195,-233,-171,535,0
101873256,-12690,-12100,7835,0.654944196,0.502743101,0.59596679,-0.020353362,0.826675331,-3836,-5798,-826,3263,-3999,1271,-255,-151,615,0
101893256,-12436,-8013,7885,0.67134892,0.406000664,0.664701392,0.008876113,0.786139634,-2872,4392,2608,2699,-3662,1835,-247,-123,616,0
101913256,-13177,-10705,7992,0.678545082,0.312821483,0.722315213,0.042259412,0.747950396,-4078,404,5922,2497,-3461,1523,-243,-93,679,0
101933256,-12477,-11010,6400,0.671376765,0.205053501,0.787281076,0.08415252,0.699300937,-2904,1372,6344,2872,-3862,1929,-237,-95,771,0
101953256,-12381,-11606,5733,0.649892524,0.114084503,0.844288074,0.121767744,0.651235482,-3460,1438,8026,2523,-3208,1976,-217,-71,779,0
101973256,-10398,-11819,1428,0.616660984,0.023267981,0.898981766,0.170992276,0.596181666,-574,2120,2256,2771,-2624,2054,-213,-63,835,0
101993256,-10099,-13300,-4070,0.575234661,-0.073834347,0.944955231,0.225219289,0.538044747,-1318,58,-5788,2633,-2764,2059,-173,-57,870,0
102013256,-9205,-13207,-3703,0.52300632,-0.165020466,0.981746333,0.272849441,0.480304241,-1228,932,-1890,2384,-3173,2122,-141,-47,930,0
102033256,-9362,-14401,-4345,0.460093217,-0.255182782,1.007365478,0.322116157,0.421425071,-3664,-972,-174,2357,-3482,2258,-115,-61,965,0
102053256,-8363,-15023,-5323,0.385990404,-0.333299354,1.025574796,0.366037674,0.361551628,-4116,-1914,462,2043,-3535,2414,-65,-61,994,0
102073256,-5427,-13999,-6673,0.305102523,-0.397145964,1.035520759,0.408640793,0.297459511,-836,272,-204,1846,-2952,2574,-13,-65,1025,0
102093256,-3311,-13252,-8444,0.221217405,-0.447510429,1.037202057,0.445983941,0.234041629,658,1814,-2184,1443,-2738,2585,25,-79,1056,0
102113256,-2663,-13238,-7897,0.14057732,-0.485273574,1.029937533,0.478009369,0.176476937,-720,1682,204,1250,-2597,2402,105,-89,1066,0
102133256,-2604,-15006,-9113,0.062067155,-0.516733924,1.012027313,0.510310952,0.121384069,-3254,-2168,-1184,1245,-2421,2427,127,-87,1079,0
102153256,-2009,-15210,-10969,-0.007492257,-0.536967399,0.99259776,0.536062056,0.071419073,-4378,-2910,-4314,867,-1985,2268,179,-79,1091,0
102173256,2042,-12020,-10695,-0.055977397,-0.546307988,0.978121492,0.55145359,0.037726402,2316,3238,-3574,358,-1337,1390,183,-107,1080,0
102193256,1674,-13151,-9577,-0.114943312,-0.551903982,0.96085613,0.566995444,0.001303388,-430,590,-1032,481,-1959,1601,221,-99,1106,0
102213256,-813,-13459,-7986,-0.189868473,-0.552012265,0.936534636,0.584943723,-0.04475786,-8094,-546,2242,582,-2637,2297,277,-115,1092,0
102233256,2098,-11946,-5435,-0.273675578,-0.543859933,0.905557493,0.603109552,-0.099541817,-4902,1820,7184,584,-2666,2596,293,-129,1103,0
102253256,6271,-9444,-7832,-0.352328619,-0.542237127,0.857084397,0.629805278,-0.15528018,1076,5992,2162,683,-1940,2600,353,-129,1087,0
102273256,6828,-9619,-8334,-0.419956909,-0.541799838,0.805132586,0.657074872,-0.201128218,-110,4436,1146,872,-1708,2432,373,-149,1072,0
102293256,6435,-10216,-8441,-0.4889814,-0.535650987,0.748943252,0.684129801,-0.244867492,-3202,1914,742,917,-1953,2523,413,-185,1080,0
102313256,6413,-9753,-6894,-0.562310793,-0.520502836,0.687311672,0.710239872,-0.290244879,-5726,1244,3388,940,-2275,2852,429,-193,1072,0
102333256,9337,-10575,-6735,-0.62795114,-0.50334679,0.624936472,0.737974549,-0.322922962,-1972,-2036,3188,1220,-2247,2528,469,-227,1056,0
102353256,9130,-3178,-7373,-0.68349356,-0.479468757,0.571871831,0.767731117,-0.329635549,-4184,11412,1056,1511,-2750,1594,531,-269,1038,0
102373256,9986,-6583,-7739,-0.732364353,-0.460805763,0.51382861,0.797770431,-0.336288268,-4096,2994,-388,1467,-2268,1838,535,-271,1033,0
102393256,11107,-6355,-7762,-0.778871123,-0.437340165,0.453910952,0.820174072,-0.354663635,-3386,1696,-1200,940,-1943,2276,567,-313,1004,0
102413256,13724,-4259,-5190,-0.824160447,-0.409319673,0.388739322,0.836912932,-0.382804947,480,4016,3166,581,-1601,2571,565,-331,1009,0
102433256,13096,-3750,-1129,-0.859986976,-0.383506544,0.32848008,0.848899424,-0.407265782,-1882,3116,10638,562,-1061,2424,595,-367,977,0
102453256,13533,-3758,1385,-0.886561342,-0.358131522,0.280350376,0.86082869,-0.415732259,-1844,1538,14952,867,-882,1805,595,-397,996,0
102473256,8980,-1188,-6909,-0.903037496,-0.357105875,0.220531848,0.881193016,-0.407626854,-11664,4798,-2074,1540,-471,2021,589,-421,958,0
102493256,18096,-1992,-14080,-0.917858275,-0.35986449,0.137923443,0.892464636,-0.418425517,6060,528,-16294,1076,-90,3206,597,-455,989,0
102513256,17349,830,-9762,-0.92878324,-0.351981455,0.067023047,0.892904425,-0.434399793,4180,3964,-8078,467,-586,2786,599,-473,968,0
102533256,17151,1974,-5932,-0.934934903,-0.341770299,0.008294603,0.888855197,-0.447366411,3644,4334,-612,306,-435,2302,593,-529,972,0
102553256,13881,1672,-1985,-0.938105147,-0.329903739,-0.046848575,0.884926163,-0.452723766,-2940,1880,7050,503,-267,2125,585,-521,974,0
102573256,11745,2015,-2145,-0.931990812,-0.33337588,-0.106572722,0.880140388,-0.452000001,-7080,540,6670,784,206,2319,577,-543,964,0
102593256,12588,3594,-5775,-0.91661747,-0.343959827,-0.180958099,0.86947492,-0.449216554,-4938,1354,-276,960,530,2792,555,-581,934,0
102613256,15038,6918,-6796,-0.897759359,-0.347648138,-0.255845995,0.854863945,-0.442040065,568,5666,-2178,1054,358,2693,543,-625,955,0
102633256,13804,7231,-4404,-0.88325163,-0.336045237,-0.318150244,0.843444966,-0.425501825,-1384,4334,2302,1219,-67,2078,527,-643,941,0
102653256,9924,7462,402,-0.867433906,-0.321954573,-0.376069962,0.832341135,-0.403421396,-8606,2876,11392,1425,-110,1998,523,-667,928,0
102673256,7912,8841,1194,-0.842349831,-0.308280239,-0.446766913,0.818936002,-0.365447417,-11818,3504,12546,2123,324,2296,485,-683,912,0
102693256,6957,8935,-2741,-0.801455803,-0.29458921,-0.537499405,0.791221313,-0.320789505,-12414,1052,4270,2457,719,3047,467,-711,911,0
102713260,11995,14866,-2716,-0.744387956,-0.278680662,-0.643248911,0.745553,-0.27558584,-570,10210,3944,2355,1032,3425,433,-749,891,0
102733260,11922,14138,-6238,-0.689001195,-0.259419024,-0.734918957,0.699828193,-0.229048641,1136,6304,-3934,2470,975,2980,421,-757,894,0
102753260,9840,14013,-5831,-0.634115964,-0.246686626,-0.813997716,0.652511537,-0.193765599,-1226,4208,-3576,1974,1141,2622,381,-795,853,0
102773260,6716,14090,-4714,-0.576218823,-0.236968208,-0.889643351,0.600887178,-0.166113231,-5632,2780,-1654,1665,1263,2472,343,-807,848,0
102793260,6749,15180,-3090,-0.517056668,-0.22206361,-0.964190778,0.545556964,-0.139954859,-3584,3478,1196,1561,1225,2478,325,-801,833,0
102813260,7600,16582,-2837,-0.459289532,-0.20929987,-1.03246224,0.491791796,-0.116268614,108,5000,1262,1514,1539,2369,271,-825,803,0
102833260,10522,16243,-5748,-0.407908482,-0.199933777,-1.089327246,0.444984699,-0.095168704,7770,3324,-4966,1508,1882,2107,267,-853,824,0
102853260,7417,16679,-6056,-0.362048484,-0.198078061,-1.134889097,0.404543113,-0.08604566,2980,3588,-5696,1045,1803,1710,235,-845,799,0
102873260,5896,15410,-3139,-0.319068009,-0.191609586,-1.177967837,0.364821874,-0.078637931,1336,520,36,873,1521,1593,231,-841,773,0
102893260,1122,14433,-1400,-0.261761645,-0.189946169,-1.228605394,0.314956209,-0.078426355,-6524,-1976,3564,700,2280,1786,203,-845,774,0
102913260,1214,14213,-7376,-0.19765991,-0.209572434,-1.265069438,0.271041393,-0.101038605,-4176,-2912,-8066,279,3080,1952,175,-845,748,0
102933260,9840,21459,1802,-0.139880782,-0.222347142,-1.289161826,0.235402431,-0.119514126,15082,11364,10984,78,3411,1668,145,-843,786,0
102953260,6033,18910,-271,-0.112294618,-0.196312465,-1.325004482,0.203779485,-0.101304211,8572,6020,6102,1157,2055,953,141,-849,754,0
102973260,-2100,13778,-4544,-0.074541058,-0.174215235,-1.360023744,0.165275183,-0.095491612,-6860,-4528,-3478,1321,2028,921,131,-847,733,0
102993260,-5374,13457,-4774,-0.011937853,-0.17372987,-1.37417313,0.125539156,-0.122103887,-11502,-5316,-3918,408,3488,1521,93,-831,744,0
103013260,2299,18266,-4699,0.051880552,-0.183266418,-1.359276884,0.102732418,-0.16084771,6472,4364,-3300,-396,4735,1984,99,-853,717,0
103033260,6584,21392,-2014,0.10773468,-0.180975556,-1.339954359,0.086220313,-0.19196517,16708,10762,2048,-268,4740,1423,63,-843,729,0
103053260,2736,17893,-1809,0.123856058,-0.156601567,-1.350724039,0.06986185,-0.186500151,9800,3810,1614,627,2811,517,49,-835,732,0
103073260,-4609,13713,-997,0.155347304,-0.127095047,-1.350143525,0.037638338,-0.195969017,-4288,-4594,2258,896,2016,808,61,-853,727,0
103093260,-4271,14231,-774,0.194903795,-0.098764826,-1.333801467,0.006573733,-0.216581035,-2242,-3444,1780,695,2517,1233,61,-839,704,0
103113260,-851,16873,1417,0.223040795,-0.068383874,-1.320218129,-0.008029427,-0.230835814,5792,1954,5332,145,4395,989,39,-835,681,0
103133260,-3042,15933,2175,0.235804643,-0.020241693,-1.317294779,-0.024638765,-0.232325919,1730,-4,5342,467,5763,306,51,-831,692,0
103153260,-4363,15337,2743,0.249352856,0.041339708,-1.302295881,-0.050071498,-0.243819477,-526,-1132,4464,839,6371,581,49,-839,640,0
103173260,-4896,14601,-1929,0.26712024,0.079272052,-1.277808524,-0.063436355,-0.267280735,-1072,-2246,-6578,813,4001,938,81,-835,626,0
103193260,-5784,16034,2123,0.291518854,0.11768472,-1.241260443,-0.085191021,-0.297996836,-2020,1018,426,1019,2148,1244,63,-819,602,0
103213260,-5070,16715,1660,0.309547201,0.161316779,-1.205800243,-0.100519568,-0.329364527,42,2776,-1976,930,3309,1297,57,-819,595,0
103233260,-7088,16054,1727,0.326315645,0.213348504,-1.163219595,-0.113746123,-0.367800543,-3532,1936,-3574,1090,3964,1433,69,-807,575,0
103253260,-9884,13783,4983,0.350038636,0.26672148,-1.10894202,-0.113564568,-0.419742079,-8474,-1964,1336,775,4316,1899,81,-807,545,0
103273260,-7428,15516,2493,0.369896244,0.319949802,-1.05491403,-0.095356273,-0.474596942,-2744,2432,-5562,672,5001,2489,95,-813,536,0
103293260,-2643,19530,-1308,0.376954343,0.364774849,-1.014463246,-0.073354216,-0.514432812,7298,11380,-14868,781,4335,2360,89,-791,527,0
103313260,-5426,16234,1383,0.38039602,0.399379861,-0.982581253,-0.057451237,-0.543253589,1678,5312,-10572,761,2996,1611,95,-779,520,0
103333260,-8279,12833,9615,0.383039989,0.451858317,-0.932996172,-0.047666762,-0.584584849,-4056,-806,4548,1019,3150,1646,99,-779,511,0
103353260,-8335,12587,10986,0.376293857,0.518812291,-0.871830923,-0.035463842,-0.633844757,-4374,-80,5098,1473,3906,1936,105,-761,467,0
103373260,-6040,15317,4253,0.353492439,0.577781551,-0.824122931,-0.015730083,-0.671615727,-484,6712,-10664,1583,4329,1911,119,-735,433,0
103393260,-4903,15439,3895,0.321716923,0.623547815,-0.790828503,0.001772225,-0.695990235,760,7796,-12928,1348,3844,1436,133,-737,452,0
103413260,-4593,13902,7058,0.288183788,0.660437224,-0.764049423,0.01725756,-0.714399029,272,5272,-7700,1059,3321,1110,145,-727,409,0
103433260,-2432,11482,12327,0.251521355,0.702325156,-0.726769566,0.019134164,-0.739332918,3496,1168,1680,1396,2693,707,141,-709,431,0
103453260,-4375,10220,15311,0.212454157,0.749715274,-0.675620234,0.018803671,-0.772391517,-1796,-172,6132,1899,2718,561,179,-687,397,0
103473260,-5736,11016,12950,0.167942924,0.794373242,-0.621912237,0.029441876,-0.80487922,-6110,2934,-174,2142,3215,815,219,-683,383,0
103493260,-4481,12603,11926,0.117840115,0.830706559,-0.574129863,0.047885254,-0.831314573,-5226,7542,-3490,2098,3374,980,219,-675,360,0
103513260,-1693,11707,11452,0.062798409,0.85942116,-0.531121308,0.067187609,-0.852622662,-1368,6994,-5378,2002,3264,917,265,-655,341,0
103533260,-491,9384,14482,0.009478735,0.884875994,-0.483528337,0.084590068,-0.874195876,-692,3580,-66,2041,2901,711,269,-647,360,0
103553260,-881,7209,16036,-0.045687756,0.908013683,-0.428703982,0.104166752,-0.896377791,-3360,762,2332,2261,2928,608,303,-617,363,0
103573260,-2311,8077,16956,-0.089641429,0.927490409,-0.370694307,0.138995925,-0.914583171,-7774,4326,3516,2566,2658,1033,313,-601,335,0
103593260,1906,6984,13428,-0.1484055,0.939863859,-0.312010855,0.17778755,-0.928093107,-1088,4036,-3984,2776,2984,1126,357,-567,348,0
103613260,6401,5747,11599,-0.209314918,0.94400732,-0.25712577,0.20924828,-0.93744977,6166,3294,-7826,2640,2543,798,385,-557,343,0
103633260,6608,3509,13219,-0.261065606,0.943893366,-0.20272023,0.230225516,-0.945239918,4822,442,-4546,2407,2054,252,387,-527,348,0
103653260,3216,2504,17150,-0.287954271,0.94601059,-0.148152939,0.252541892,-0.949493485,-3120,162,3334,2377,1323,172,427,-501,358,0
103673260,1601,2825,17661,-0.303730346,0.948401477,-0.08918864,0.27953621,-0.94907533,-6970,2796,4306,2705,976,247,421,-485,339,0
103693260,4725,3763,14378,-0.334263958,0.941698816,-0.03288185,0.312885588,-0.942350576,-1544,6654,-2100,2876,1374,493,427,-455,344,0
103713260,7874,-600,12326,-0.362515694,0.931339469,0.026997383,0.337136013,-0.93415143,4032,-328,-5936,2652,988,140,447,-435,324,0
103733260,6521,-987,13313,-0.383562541,0.919338821,0.084665745,0.35820337,-0.922796745,476,804,-3504,2564,903,18,455,-419,347,0
103753260,5657,-1610,16141,-0.40027014,0.905856466,0.136708274,0.377687821,-0.908794139,-1886,1292,2636,2393,837,31,467,-379,338,0
103773260,3509,-1970,17125,-0.414454907,0.890244424,0.188083863,0.400622731,-0.889911698,-6780,2262,5188,2509,884,204,467,-361,351,0
103793260,5473,-5307,14742,-0.432292771,0.866782408,0.249398645,0.42936017,-0.861559991,-3340,-2588,1114,2872,875,381,481,-329,368,0
103813260,9488,-4504,8820,-0.465915889,0.832070779,0.303773687,0.459190695,-0.829230273,3930,764,-9770,2668,1127,407,485,-325,356,0
103833260,9841,-5382,8780,-0.49316095,0.800437164,0.345631362,0.47685081,-0.803718109,3722,296,-8816,1954,1009,72,503,-295,379,0
103853260,7481,-5807,13689,-0.511334894,0.774802087,0.378694622,0.485767862,-0.784339059,-1866,528,2042,1585,1087,-101,511,-289,416,0
103873260,4242,-6190,15145,-0.527968641,0.747647708,0.412328702,0.497452009,-0.761736864,-9076,772,5978,1758,1257,81,521,-253,435,0
103893260,6548,-6437,11386,-0.546019308,0.717504468,0.444782471,0.52133096,-0.728907499,-4908,1226,-666,2034,872,530,525,-251,424,0
103913260,9150,-6670,8804,-0.563641632,0.690999923,0.467043855,0.543948954,-0.699874867,-104,1404,-5104,1575,546,549,523,-249,449,0
103933260,10542,-7136,10147,-0.58122978,0.668730302,0.479385136,0.565533493,-0.675374703,2096,866,-1662,1245,512,633,545,-235,475,0
103953260,11408,-10219,12388,-0.593161311,0.649441168,0.493055092,0.581619885,-0.653133372,3368,-4938,3490,1146,426,461,543,-243,465,0
103973260,8996,-9512,14284,-0.602983508,0.624786912,0.516065044,0.592774887,-0.627742069,-1908,-2852,8222,1485,742,196,549,-221,492,0
103993260,8828,-10268,9080,-0.608339429,0.59593761,0.548741165,0.60533759,-0.592319727,-2350,-3544,-1396,1833,352,165,555,-231,505,0
104013260,9630,-9130,8284,-0.612711124,0.572101057,0.573492166,0.615501553,-0.562291922,-826,-486,-2188,1547,230,94,545,-221,498,0
104033260,9608,-9266,8272,-0.617637482,0.5476806,0.596447412,0.626234535,-0.531012284,-1034,-130,-1406,1560,217,159,569,-199,511,0
104053260,8782,-10016,9901,-0.622946803,0.524205606,0.616099889,0.638124343,-0.49871086,-2950,-1118,2704,1585,253,347,541,-205,524,0
104073260,8236,-10928,10863,-0.624061773,0.502909284,0.637572491,0.649008149,-0.463382889,-4126,-2384,5378,1742,23,362,565,-193,540,0
104093260,7716,-8666,10745,-0.626361907,0.483147025,0.654648476,0.664911598,-0.421331652,-5228,2678,5878,2036,-243,604,569,-187,544,0
104113260,10833,-10757,7113,-0.627172045,0.461274289,0.674764791,0.679909632,-0.371823521,1102,-1032,-892,2137,-690,579,567,-175,548,0
104133260,12095,-12306,6599,-0.627202481,0.442965059,0.691473913,0.6947034,-0.319104977,3644,-3726,-1384,2113,-1078,728,547,-193,540,0
104153260,11205,-12070,8313,-0.627417957,0.431711173,0.701181824,0.711832155,-0.262096621,1814,-2978,2508,2235,-1516,1064,565,-183,538,0
104173260,6938,-13031,5347,-0.635078233,0.404996602,0.713772115,0.725145921,-0.193523742,-7136,-4772,-2600,2530,-940,1418,569,-173,539,0
104193260,9126,-9148,6404,-0.657327315,0.377366703,0.706353388,0.7450365,-0.12641977,-3342,3016,536,2367,-499,1733,555,-183,544,0
104213260,7828,-9108,7113,-0.681098582,0.354253298,0.691060057,0.763794623,-0.056704894,-6804,2678,2810,2407,-587,2040,571,-189,536,0
104233260,12208,-8037,1542,-0.720591424,0.32738818,0.653204639,0.789506501,0.035827171,878,3928,-7802,2620,-1128,2925,573,-193,589,0
104253260,17089,-7422,445,-0.754573759,0.320662675,0.605052049,0.810519375,0.118309133,9602,3964,-9834,2082,-1727,2853,599,-217,549,0
104273260,16451,-8083,1819,-0.778318333,0.318949264,0.566580939,0.819681013,0.186486091,7490,1530,-6980,1770,-1497,2308,585,-243,550,0
104293260,13956,-9025,3555,-0.796731872,0.319808735,0.533205178,0.822201991,0.246063201,1790,-1396,-3444,1588,-1240,2141,587,-255,547,0
104313260,10351,-9445,4978,-0.813392503,0.323274521,0.499321579,0.823948998,0.295007374,-6086,-3344,-596,1208,-862,2201,599,-269,519,0
104333260,12511,-9260,4943,-0.824692704,0.336567819,0.466284999,0.823616132,0.339220239,-2082,-3894,-1152,1028,-1265,2035,595,-293,527,0
104353260,13968,-6821,6117,-0.826118413,0.36594375,0.437264762,0.817662682,0.384630611,828,260,270,1217,-2069,1785,579,-297,507,0
104373260,13419,-5953,6759,-0.821456196,0.403651206,0.40912542,0.806767773,0.432486948,-126,1162,326,1312,-2486,1853,561,-293,505,0
104393260,11113,-7869,7662,-0.80927751,0.45095269,0.380617487,0.79276591,0.479587113,-4438,-3674,628,1173,-2810,2114,567,-307,490,0
104413260,9050,-5823,9967,-0.79592368,0.503695752,0.33719167,0.779421166,0.529034209,-8194,-854,3658,886,-2729,2675,553,-329,450,0
104433260,11986,-3893,11829,-0.788443711,0.538528547,0.296213607,0.75759729,0.581372611,-1994,1856,6192,1097,-1955,2599,531,-335,448,0
104453260,14558,-4182,9931,-0.783219563,0.558083108,0.271856719,0.725617187,0.631561032,3420,462,1590,1444,-1516,2178,521,-351,403,0
104473260,12541,-4008,8480,-0.774759106,0.575866386,0.258362479,0.691596074,0.673963761,-328,366,-1910,1487,-1432,1747,513,-357,391,0
104493260,10529,-3558,8495,-0.771504339,0.586732207,0.242593334,0.654175017,0.71582797,-4258,760,-2218,1461,-1017,1890,499,-359,403,0
104513260,7106,-4808,7060,-0.762646224,0.606354287,0.220942715,0.612249959,0.758604517,-10814,-2426,-5734,1404,-1445,2193,499,-369,397,0
104533260,5852,-5475,8718,-0.740118198,0.644870728,0.185383521,0.57198864,0.798433704,-12596,-4902,-3676,862,-2297,2583,469,-383,380,0
104553260,9861,-684,14364,-0.713918461,0.683314322,0.146400574,0.533221392,0.832630333,-3840,3522,6510,622,-2004,2515,457,-383,366,0
104573260,11529,-3305,10314,-0.713057201,0.689158989,0.12069812,0.490019355,0.862816064,-316,-2748,-1980,766,-524,2318,439,-403,345,0
104593260,10520,208,9311,-0.712756276,0.694983333,0.083311877,0.447426736,0.890025109,-2302,3240,-4172,520,-448,2439,437,-393,357,0
104613260,10605,-150,10866,-0.707086459,0.703292241,0.058449644,0.406736597,0.911348676,-1982,1632,-1304,663,-528,2021,433,-391,350,0
104633264,9221,-2041,9261,-0.686389301,0.724038344,0.052731809,0.366121624,0.928814869,-4056,-2454,-5218,1024,-1316,1541,413,-403,338,0
104653264,8490,-4364,14742,-0.640688032,0.765018962,0.051869928,0.326999482,0.943399951,-4176,-7222,4524,959,-2375,1467,423,-401,325,0
104673264,9293,1398,16770,-0.613426149,0.787893545,0.038892417,0.281663796,0.958580358,-1652,4182,7824,957,-1347,1771,379,-413,322,0
104693264,9311,-362,10579,-0.615175812,0.787129221,0.023816084,0.235524837,0.971478667,-1538,56,-4644,742,-7,1923,363,-411,296,0
104713264,8243,-3599,12918,-0.601211842,0.79822652,0.004088007,0.190119758,0.981689444,-3294,-7284,-270,329,-649,2165,369,-407,302,0
104733264,8791,-1744,13981,-0.577125229,0.815733036,-0.015905645,0.137749489,0.990306107,-1392,-4126,1268,529,-1127,2315,351,-415,304,0
104753264,12347,3451,14999,-0.545197327,0.837067818,-0.031613791,0.084454495,0.995912289,6894,6008,2510,867,-1646,2075,337,-417,298,0
104773264,9274,1189,14884,-0.513386078,0.856884431,-0.034991449,0.04047922,0.998562913,1712,1242,1690,869,-1467,1592,313,-409,296,0
104793264,7453,1620,13163,-0.493235014,0.868494652,-0.039476294,-0.00290025,0.999214076,-1270,2012,-2134,829,-880,1583,311,-407,278,0
104813264,8628,678,13948,-0.457523877,0.887783935,-0.041780966,-0.044039115,0.998149928,2318,-14,-1228,741,-1675,1529,293,-389,290,0
104833264,7861,-1882,17614,-0.404813431,0.91339986,-0.035295908,-0.092533477,0.99506741,2440,-5052,5304,972,-2304,1745,253,-399,287,0
104853264,7452,1446,13908,-0.353209991,0.935282394,-0.007292898,-0.117333569,0.993042162,3432,2734,-2876,1555,-2413,480,235,-375,294,0
104873264,928,392,13996,-0.286416225,0.957885556,0.011680224,-0.132584419,0.991072461,-7752,1206,-3332,1003,-2594,341,189,-383,254,0
104893264,5433,-769,16787,-0.245503636,0.969240142,0.00985307,-0.169778595,0.985383686,2834,-1226,1806,347,-1768,1509,171,-361,274,0
104913264,2419,-1498,17151,-0.192864593,0.981123768,0.008635051,-0.199348303,0.979822559,-1540,-2788,2160,152,-2136,1235,125,-361,282,0
104933264,1011,-1620,16090,-0.140346974,0.990023717,0.009424819,-0.237223724,0.971310234,-2658,-3020,-254,214,-2081,1581,127,-347,265,0
104953264,1872,416,18488,-0.082099952,0.996607294,0.003254509,-0.282591362,0.959090881,1054,946,4316,-3,-2398,1935,91,-351,281,0
104973264,6096,2623,22047,-0.029410407,0.999555945,0.004465625,-0.324671693,0.945622114,11222,5392,11338,174,-2148,1802,81,-357,276,0
104993264,791,1226,18792,0.018278804,0.999642661,0.019444104,-0.341564786,0.939439707,2240,3174,4828,739,-2020,740,43,-329,272,0
105013264,863,570,20213,0.055515829,0.997598303,0.041237308,-0.356721323,0.93306086,3640,2560,7744,967,-1655,711,13,-321,276,0
105033264,1390,15,19877,0.088327786,0.993098741,0.076930755,-0.360412678,0.929365885,5830,2628,7232,1550,-1547,304,9,-317,278,0
105053264,571,-1213,20981,0.142575383,0.982082052,0.123053192,-0.349821962,0.928479753,5816,1600,9778,1930,-2210,-154,-27,-283,329,0
105073264,-1917,-2612,19740,0.202010568,0.963374361,0.176574922,-0.329345264,0.927463941,2898,588,7942,2361,-2552,-374,-61,-267,326,0
105093264,-4166,-4200,18229,0.266590081,0.933237536,0.242264488,-0.303493887,0.921855859,440,-514,5886,2848,-2731,-240,-79,-251,352,0
105113264,-5149,-3965,15876,0.329683654,0.89224289,0.312462375,-0.266165368,0.913282137,562,2246,2560,3255,-2737,-359,-105,-219,389,0
105133264,-6295,-6207,16375,0.395562831,0.833410395,0.394647369,-0.226235013,0.894581227,436,246,5474,3660,-3147,55,-141,-191,400,0
105153264,-5442,-6402,14868,0.447246499,0.764465775,0.480912093,-0.177087469,0.868199883,3946,2490,4832,4068,-2883,124,-171,-147,453,0
105173264,-4334,-6580,13729,0.462782644,0.703848047,0.566964214,-0.113947615,0.83514338,6714,4594,4614,4429,-1047,-139,-183,-147,473,0
105193264,-9262,-8484,9598,0.469123095,0.64753028,0.641707899,-0.024564475,0.799864732,-3222,2770,-2018,4539,710,-1020,-191,-111,501,0
105213264,-13366,-13825,6210,0.516718231,0.553654473,0.708752763,0.048648333,0.756600348,-9914,-6318,-5900,3824,-2358,-482,-205,-97,517,0
105233264,-9106,-9959,10171,0.54626631,0.45808759,0.773497315,0.099202864,0.707168248,-248,3158,5548,3667,-3000,457,-219,-77,594,0
105253264,-7618,-10101,6456,0.563722983,0.352553902,0.839123619,0.155173339,0.648044435,3326,4296,1538,3876,-2914,607,-213,-77,617,0
105273264,-11011,-13060,4441,0.578681264,0.243234491,0.886973167,0.218649443,0.590390658,-3010,-620,1000,3731,-2825,330,-207,-63,690,0
105293264,-13574,-14357,2109,0.575315334,0.119554488,0.936588527,0.276293308,0.521151274,-8326,-2132,412,3777,-3516,1145,-195,-73,779,0
105313264,-10177,-14302,902,0.542177314,0.004244249,0.990456556,0.318923445,0.441805361,-2528,-1078,1816,3435,-3383,1901,-177,-49,828,0
105333264,-6040,-11130,-2242,0.506169718,-0.092721451,1.021997067,0.358874792,0.373010701,4550,5778,-1342,2938,-2795,1579,-161,-45,865,0
105353264,-8805,-13370,-2784,0.461413655,-0.195706341,1.036615252,0.402704682,0.303944495,-2518,1600,1010,3017,-3391,1654,-149,-33,873,0
105373264,-6038,-12677,-3825,0.400212709,-0.294684663,1.040649404,0.444827501,0.22946237,1082,3020,2172,2966,-3447,1895,-105,-63,928,0
105393264,-5621,-12830,-5010,0.327359369,-0.388984354,1.026961623,0.488398444,0.153470319,-490,2488,2920,2996,-3537,2044,-67,-67,964,0
105413264,-4938,-12800,-6038,0.244520359,-0.477780359,0.993606663,0.534697242,0.076132728,-1916,1958,3860,3171,-3585,2243,-25,-79,1034,0
105433264,-3683,-13192,-11849,0.156578083,-0.554212609,0.946457388,0.579008285,0.000152938,-2266,376,-5454,2834,-3242,2359,65,-99,1061,0
105453264,-2571,-12451,-10045,0.064390484,-0.60343001,0.907485263,0.60624346,-0.066165121,-3120,1024,-158,2050,-3333,2393,89,-113,1096,0
105473264,-68,-10697,-6605,-0.036140874,-0.644082196,0.858473974,0.633686289,-0.134209843,-1328,3490,8076,2090,-3413,2510,159,-141,1138,0
105493264,-153,-11169,-8877,-0.12292894,-0.676686676,0.801230127,0.662596226,-0.192876162,-4478,1194,4626,2214,-2865,2415,189,-161,1119,0
105513264,3264,-9086,-10401,-0.224442672,-0.701681741,0.731149164,0.692243097,-0.257889854,-854,3794,2378,2271,-3183,2760,237,-189,1140,0
105533264,6004,-7601,-10353,-0.316958614,-0.719228173,0.654579524,0.721566346,-0.31592758,1696,4874,3016,2260,-2721,2626,273,-197,1152,0
105553264,5638,-7935,-10919,-0.388240989,-0.730377987,0.584362264,0.744859084,-0.363049546,-1476,2250,2210,2014,-2018,2456,325,-237,1144,0
105573264,7306,-5726,-9709,-0.458890075,-0.734392734,0.510292863,0.762934308,-0.41229064,-374,4648,4778,1871,-1859,2676,359,-283,1149,0
105593264,9455,-3959,-10752,-0.54498321,-0.724316748,0.420624232,0.782602118,-0.459306004,1086,5642,2412,2192,-2773,2980,367,-321,1141,0
105613264,10646,-3589,-8580,-0.624425318,-0.7026629,0.329810028,0.800260175,-0.494598284,898,3534,6134,2331,-2772,2897,425,-359,1116,0
105633264,9923,-3181,-10116,-0.678149994,-0.686442727,0.242410287,0.817051675,-0.514459684,-2436,1530,2400,2399,-2045,2663,431,-385,1123,0
105653264,10587,-1892,-10260,-0.717833575,-0.669100197,0.161706317,0.824889611,-0.532396661,-2400,1512,1508,1991,-1585,2659,463,-441,1096,0
105673264,11168,67,-9736,-0.738534339,-0.660573035,0.084701894,0.82910802,-0.5432774,-1888,2998,2260,1865,-781,2421,469,-457,1088,0
105693264,10549,1144,-7938,-0.753512429,-0.648940582,0.00313225,0.832976298,-0.543839963,-3594,2478,5526,2198,-680,2367,477,-507,1104,0
105713264,10426,2059,-7689,-0.760619141,-0.635379361,-0.082641348,0.831444986,-0.539986702,-4084,1482,5586,2300,-532,2532,469,-537,1065,0
105733264,10841,4672,-8337,-0.757330587,-0.619392978,-0.179613555,0.825984158,-0.524959356,-3192,3622,3776,2727,-334,2653,463,-581,1078,0
105753264,13172,7425,-11466,-0.751721043,-0.590805853,-0.277603766,0.814150508,-0.501892814,1598,5966,-3462,2859,-710,2648,467,-619,1054,0
105773264,11239,6730,-10213,-0.742321277,-0.558404107,-0.363898732,0.796912232,-0.477836717,-1958,1826,-2084,2528,-794,2427,451,-641,1038,0
105793264,10453,7218,-7287,-0.712100534,-0.546105314,-0.443573773,0.772567825,-0.457231242,-2466,414,3450,2091,514,2402,439,-687,1016,0
105813264,10823,9801,-8338,-0.67867136,-0.528132984,-0.523806861,0.745442484,-0.429533914,-664,3270,738,2279,509,2241,413,-713,991,0
105833264,11945,11738,-8878,-0.652108068,-0.495711911,-0.600132747,0.717320779,-0.396353038,2480,4956,-1430,2392,-65,2076,399,-733,964,0
105853264,9697,11473,-6376,-0.621677019,-0.466034923,-0.670793482,0.686423056,-0.364937294,-1028,2634,2654,2074,163,1904,373,-745,949,0
105873264,7280,10436,-2493,-0.587144863,-0.439074613,-0.738037182,0.655136822,-0.330242055,-4706,-1204,9458,2206,522,1798,349,-783,924,0
105893264,7990,14223,-554,-0.547315704,-0.418130355,-0.801468553,0.626122447,-0.288497256,-1990,5092,12992,1983,1637,1284,323,-783,903,0
105913264,12442,15605,-11042,-0.497142777,-0.398125626,-0.870806346,0.586436138,-0.25047002,8562,6104,-8962,2368,1766,1767,309,-809,888,0
105933264,4837,12840,-4772,-0.445081025,-0.370110668,-0.943734297,0.54047589,-0.209864147,-5048,-826,2706,2473,1776,1644,293,-813,869,0
105953264,4696,13748,-2470,-0.39743609,-0.321034329,-1.024468911,0.486881681,-0.158313083,-3730,-468,5814,2889,1362,1650,269,-837,886,0
105973264,5112,14557,-684,-0.336864579,-0.258501306,-1.121212165,0.415346645,-0.094368227,-854,-438,7454,3590,2328,2019,235,-837,806,0
105993264,4125,14531,2138,-0.273149669,-0.195401201,-1.215848323,0.335255738,-0.038053073,-722,-1706,11144,3331,2886,2095,205,-845,758,0
106013264,7550,18797,-217,-0.213992665,-0.140455106,-1.296783896,0.257831184,0.005253142,8220,5902,4450,3110,3600,2082,193,-853,760,0
106033264,2131,17807,-1399,-0.155113079,-0.076348938,-1.376889069,0.170543119,0.039823405,-854,3336,-158,3323,3302,2066,143,-841,712,0
106053264,3115,19173,2269,-0.099521726,0.003109686,-1.441900897,0.071081519,0.072970837,3010,5694,4702,3599,3556,2215,137,-841,693,0
106073264,5196,18789,3985,-0.083537355,0.079452317,-1.430689276,-0.003333405,0.116313111,7820,4994,5592,3278,3249,1000,133,-825,626,0
106093264,6143,16330,9288,-0.088789433,0.158448935,-1.372962136,-0.072009673,0.166916115,9594,376,13778,3101,2805,392,127,-825,600,0
106113264,2696,15678,9628,-0.099499188,0.248466482,-1.290304895,-0.15909151,0.214711642,2166,-342,11498,3775,3689,370,151,-803,546,0
106133264,-518,16221,4660,-0.101910608,0.333647652,-1.207907564,-0.25814167,0.233284168,-4528,1676,-1546,4184,4171,1007,145,-769,495,0
106153264,-1177,15262,3842,-0.112059103,0.396043031,-1.141530072,-0.3359816,0.235604312,-6224,692,-5350,3403,3794,821,163,-751,484,0
106173264,-3295,15376,5228,-0.104505826,0.44359914,-1.093032428,-0.400281016,0.214355899,-10318,1664,-4134,2644,2704,1206,181,-737,425,0
106193264,11076,18247,11481,-0.125659555,0.482957326,-1.044254127,-0.448122412,0.215419255,18024,8116,7162,2168,2479,332,199,-729,437,0
106213264,3613,9446,9775,-0.183537547,0.522175893,-0.980753521,-0.495095793,0.243628254,1274,-8528,2660,2172,3043,-859,221,-695,399,0
106233264,-10388,14024,24421,-0.180689814,0.530768028,-0.972146444,-0.502466338,0.244828781,-26700,976,31448,389,-273,-24,263,-699,403,0
106253264,-6101,9014,9946,-0.183075827,0.588535499,-0.903803452,-0.584851008,0.187357347,-18786,-7860,878,3567,4038,1815,261,-673,396,0
106273264,-2303,17241,7219,-0.186000226,0.616474044,-0.868774834,-0.631947795,0.110209187,-11020,9564,-5880,2781,4112,2605,281,-635,368,0
106293264,10726,16454,7021,-0.225578904,0.629481254,-0.835859284,-0.662627004,0.065294592,14028,8500,-6538,1917,4366,1473,301,-645,384,0
106313264,7285,9050,10709,-0.27774016,0.644280655,-0.790773837,-0.696479373,0.056657206,5638,-5354,376,1761,2924,-32,343,-623,373,0
106333264,1777,6760,14337,-0.307994075,0.670043914,-0.739339541,-0.73402144,0.02833849,-6726,-8786,7010,2053,2401,189,379,-609,410,0
106353264,988,11905,12719,-0.321658948,0.696772067,-0.693874548,-0.763281461,-0.037112959,-8846,2862,2690,2838,2624,1407,393,-585,373,0
106373264,8940,13984,7813,-0.357274277,0.703339186,-0.659918686,-0.780124372,-0.093831886,6288,8010,-7630,2580,3078,1451,397,-593,381,0
106393264,5486,12281,10284,-0.39156694,0.708251288,-0.62580339,-0.794429593,-0.134831527,-1948,5476,-2710,2181,2617,636,433,-561,363,0
106413264,5220,8544,12939,-0.42580926,0.716378354,-0.583539379,-0.810826274,-0.176255392,-3640,-1022,2498,2203,2456,409,455,-537,402,0
106433264,7665,8017,14976,-0.453982389,0.727494849,-0.538284074,-0.820601704,-0.235591207,382,-878,6212,2642,2371,968,461,-527,394,0
106453264,9757,7089,12404,-0.479467874,0.746555602,-0.477333678,-0.827298686,-0.309364382,3842,-966,340,3568,1980,1089,485,-515,394,0
106473264,8682,9936,11991,-0.495595811,0.759901723,-0.432047427,-0.822551167,-0.372739125,1090,6268,-982,3080,1437,975,493,-489,396,0
106493264,7350,9342,11715,-0.523958094,0.762086896,-0.387930227,-0.806817301,-0.442996414,-2588,6440,-1566,3298,2259,1212,509,-457,445,0
106513264,8252,6803,13121,-0.547707053,0.765501229,-0.341948081,-0.787301064,-0.507481102,-1542,2660,1186,3143,1841,1033,521,-449,417,0
106533264,10785,5853,13794,-0.573337197,0.765985277,-0.292142432,-0.759193162,-0.574356491,2738,2254,2500,3376,1816,1129,533,-449,449,0
106553268,8665,2548,13282,-0.593731936,0.76939743,-0.234396341,-0.72984577,-0.634252215,-2222,-2602,1430,3407,1406,715,549,-433,459,0
106573268,12734,4604,12879,-0.611388031,0.77109554,-0.174292983,-0.691245254,-0.693312142,5458,3586,434,3778,995,689,559,-409,463,0
106593268,10797,5161,13340,-0.625372408,0.770913435,-0.114434582,-0.64910857,-0.744120602,1040,6744,1420,3757,839,422,593,-385,425,0
106613268,10101,1357,11788,-0.64053853,0.765688976,-0.043002419,-0.599316442,-0.791750524,-840,1316,-1498,4056,829,299,591,-383,475,0
106633268,15696,-992,12234,-0.644172067,0.762889495,0.038505219,-0.550909959,-0.826437786,10382,-730,-644,4102,-59,-263,587,-349,472,0
106653268,10521,2108,16001,-0.626200009,0.769426649,0.119881819,-0.504656266,-0.847686425,404,8370,6894,4107,-778,-699,579,-305,464,0
106673268,9988,5698,10658,-0.612586446,0.766138187,0.191414518,-0.45225472,-0.864123711,-34,18162,-3732,4157,-799,-540,577,-283,476,0
106693268,10926,1842,8357,-0.594939336,0.762546748,0.253671181,-0.4108482,-0.869317867,2568,12274,-8336,3306,-1151,-638,575,-9,466,0
106713268,10003,-2930,12083,-0.568429526,0.760193836,0.317353419,-0.379313048,-0.863819797,1412,4506,-728,2852,-1205,-824,561,-219,478,0
106733268,9804,-5592,14107,-0.536180753,0.754985793,0.384737763,-0.345827639,-0.852705145,2014,1198,3512,2945,-1377,-787,551,-195,486,0
106753268,9205,-7069,12286,-0.495554645,0.746450119,0.458062513,-0.314524224,-0.832664104,2156,388,120,2989,-1696,-964,525,-175,485,0
106773268,8490,-6405,9100,-0.455850434,0.732554846,0.527944188,-0.285620533,-0.807800084,2166,3766,-5858,2817,-1780,-1009,499,-147,498,0
106793268,6689,-6914,10630,-0.418392129,0.714920543,0.592579217,-0.26052314,-0.779914439,-306,4576,-2124,2670,-1505,-917,491,-133,488,0
106813268,7368,-8773,10324,-0.390841246,0.690013431,0.652893676,-0.233060837,-0.751577355,1998,2422,-1970,2524,-1167,-688,465,-95,510,0
106833268,6783,-13336,13432,-0.349556716,0.67066375,0.710922957,-0.216511058,-0.718150014,2090,-5266,4898,2216,-1611,-900,467,-89,488,0
106853268,5308,-12462,12219,-0.294173039,0.648805579,0.775534277,-0.206116952,-0.675308088,956,-1936,3204,2359,-2126,-1239,427,-61,512,0
106873268,4449,-8954,6588,-0.243855935,0.61709941,0.842637078,-0.191752795,-0.628507907,892,6594,-7024,2548,-2004,-1060,419,-29,510,0
106893268,3918,-10349,5362,-0.203734836,0.589815257,0.89407139,-0.182941698,-0.589828163,1152,4878,-8590,1956,-1633,-836,393,-17,537,0
106913268,1553,-13896,11899,-0.173808319,0.56526429,0.934989063,-0.175138216,-0.558185734,-2682,-1370,5370,1704,-1203,-513,375,-11,546,0
106933268,3698,-16572,11386,-0.157159703,0.524725344,0.987627617,-0.15272546,-0.519301297,2246,-5760,5600,2224,-896,-233,393,23,574,0
106953268,5363,-15211,7072,-0.144324366,0.477427088,1.044535052,-0.124608934,-0.476206759,6150,-2070,-1552,2363,-1039,-225,373,35,573,0
106973268,3204,-12881,4274,-0.12248644,0.433124712,1.099185904,-0.107577486,-0.430379245,2496,3412,-5748,2085,-1196,-529,373,37,574,0
106993268,3935,-14152,6365,-0.096869059,0.401113026,1.14001233,-0.100956541,-0.393248158,4840,1512,-396,1639,-1420,-693,351,41,594,0
107013268,2168,-15565,7505,-0.064303048,0.36535947,1.184543926,-0.101081558,-0.350089744,2282,-718,3120,1819,-1482,-894,317,41,632,0
107033268,1342,-13898,5769,-0.038370721,0.32100169,1.234219265,-0.093521627,-0.302627781,1440,3172,1058,2055,-1567,-567,321,57,636,0
107053268,1348,-14293,3839,-0.018845646,0.273572367,1.283784385,-0.083370524,-0.254274653,2146,2872,-1278,2070,-1443,-467,319,59,655,0
107073268,-50,-14653,2626,-0.01342006,0.226238102,1.3305431,-0.064086355,-0.210453093,-550,2544,-2158,2009,-1233,105,317,69,667,0
107093268,538,-16759,-122,-0.016786097,0.170941724,1.38280892,-0.035195112,-0.161523402,538,-1326,-5994,2123,-1605,458,303,69,694,0
107113268,2058,-16710,-1036,-0.027020305,0.118047496,1.427279485,-0.005034093,-0.114512093,3322,-976,-6088,2011,-1420,520,311,59,721,0
107133268,-303,-18910,-315,-0.01634293,0.058695883,1.469878809,0.0035992,-0.054109819,-1178,-5172,-2578,2407,-1964,-212,317,73,741,0
107153268,-403,-13854,-67,-0.02028795,0.014758727,1.485366964,0.01740789,-0.012056723,-1488,4954,-612,1811,-423,205,325,63,766,0
107173268,-729,-14127,-1253,-0.037587918,-0.037922958,1.471675334,0.044498574,0.037044225,-2782,4384,-1282,2142,-1196,807,299,59,750,0
107193268,3147,-15152,500,-0.083304495,-0.086460907,1.422382606,0.092329727,0.084020233,3674,2192,4050,2345,-3132,1515,329,43,796,0
107213268,5362,-21283,-5504,-0.117319824,-0.132832477,1.371800358,0.128162798,0.129455801,6874,-10414,-6620,2024,-906,1306,369,55,777,0
107233268,4620,-17148,-178,-0.128863994,-0.169267135,1.338120605,0.141790543,0.165584398,5144,-2406,5360,1746,-111,304,375,29,834,0
107253268,2208,-14042,-1726,-0.133818626,-0.213532716,1.299643562,0.150344372,0.209210975,46,3488,3656,1971,162,226,377,33,820,0
107273268,-745,-15551,-1883,-0.136817625,-0.257581595,1.259844852,0.1576482,0.252349105,-6156,52,4828,2026,214,421,361,29,845,0
107293268,340,-17483,-932,-0.1483346,-0.301562715,1.214308257,0.17356158,0.294742327,-4308,-4332,8284,2194,177,717,393,-13,887,0
107313268,4317,-16705,-3176,-0.167943209,-0.357876301,1.15180097,0.194773899,0.350951998,3202,-3494,5594,2755,-216,683,379,9,887,0
107333268,9598,-14009,-12845,-0.188463846,-0.418702902,1.081969779,0.209949998,0.415264351,13010,952,-11904,2934,-819,578,413,-45,929,0
107353268,5915,-13124,-10501,-0.19547452,-0.46763468,1.027893712,0.216249302,0.465284823,5556,1926,-5778,2133,-63,107,397,-51,941,0
107373268,3467,-8769,-9127,-0.195557363,-0.51567705,0.975744422,0.2254164,0.510055028,592,9748,-1522,1890,675,301,417,-65,955,0
107393268,1903,-11426,-4509,-0.203185018,-0.559802361,0.92179513,0.244088378,0.550131565,-2858,3278,9370,2082,619,801,393,-75,958,0
107413268,2828,-8225,-6356,-0.213544229,-0.610108929,0.856769294,0.259651542,0.598917972,-1352,8340,7336,2605,184,689,427,-99,996,0
107433268,3240,-10953,-11626,-0.22265471,-0.657977717,0.791700995,0.265364436,0.648775069,-832,1448,-1654,2699,-224,326,421,-129,1027,0
107453268,2597,-7585,-12157,-0.231776906,-0.704534451,0.723549404,0.2671356,0.698769933,-2460,6678,-1308,2648,-392,243,411,-147,1023,0
107473268,2388,-8343,-11957,-0.251611272,-0.745589335,0.652802422,0.274053818,0.74445207,-3570,3284,524,2798,-734,603,429,-161,1065,0
107493268,2257,-7425,-9067,-0.286899386,-0.778113717,0.579810784,0.28586283,0.785282128,-4902,3130,7452,2872,-1205,881,429,-195,1063,0
107513268,7882,-2109,-11499,-0.340574423,-0.815115307,0.472780666,0.309535297,0.834094148,4810,11014,3814,3697,-1377,1546,453,-239,1072,0
107533268,8011,2194,-16757,-0.384974636,-0.843928937,0.364489335,0.327367375,0.874589955,3460,16524,-5854,3509,-1231,1627,451,-277,1067,0
107553268,7860,981,-17533,-0.424034413,-0.854717676,0.281353515,0.336768333,0.89934003,1808,11384,-7062,2713,-1356,1302,475,-309,1076,0
107573268,7107,-4269,-14375,-0.463400807,-0.850121446,0.225586677,0.344034156,0.911597645,-1002,-1212,-830,2002,-1544,1153,503,-351,1059,0
107593268,8139,441,-11378,-0.529195102,-0.82797757,0.148706329,0.366887957,0.918087184,-1048,5922,4522,2148,-2598,2138,515,-365,1050,0
107613268,9609,1330,-10468,-0.619861575,-0.774453307,0.061635562,0.397390964,0.915261548,-1124,4838,4736,2070,-4074,2923,531,-413,991,0
107633268,12674,1621,-11854,-0.703612616,-0.702132033,-0.01933918,0.418516792,0.907657575,2208,2678,-418,1813,-4440,2823,573,-443,1003,0
107653268,14870,1893,-12162,-0.776332501,-0.617095239,-0.074638608,0.432022532,0.898392176,4194,1340,-3896,1029,-4591,2119,603,-483,964,0
107673268,14719,677,-9424,-0.855422359,-0.49298463,-0.124836482,0.446351128,0.885733446,1216,-2838,-2420,624,-6148,2205,613,-517,927,0
107693268,15350,2780,-8093,-0.91843801,-0.340242445,-0.181696436,0.45873718,0.869554101,314,-432,-4788,371,-7077,2438,631,-535,795,0
107713268,14312,4263,-6167,-0.953247374,-0.165874721,-0.241459734,0.468866177,0.849783629,-2974,642,-6722,-12,-7823,2505,615,-567,705,0
107733268,16552,7069,501,-0.953010097,-0.000267344,-0.296272867,0.475424752,0.829226656,1566,4590,1338,-449,-7091,2172,609,-573,668,0
107753268,16824,7201,1906,-0.93469722,0.125031164,-0.329959614,0.476782367,0.816392805,2846,3796,-164,-361,-5516,1278,575,-599,576,0
107773268,14961,7320,5163,-0.913863547,0.201551363,-0.352007871,0.47530856,0.808655046,-130,3398,3864,-262,-3318,769,551,-599,566,0
107793268,13990,5853,4145,-0.895650221,0.263670696,-0.358777346,0.466196563,0.811226092,-1408,194,-324,319,-2660,359,521,-619,513,0
107813268,16638,6340,3988,-0.870895095,0.342168659,-0.353944589,0.463662984,0.814656122,4726,1304,-3312,294,-3658,-111,517,-617,505,0
107833268,15454,6680,6555,-0.839225281,0.426664378,-0.337802155,0.46341132,0.821110036,3354,2512,-888,464,-3911,-568,491,-611,478,0
107853268,15552,7966,3819,-0.808609739,0.499439215,-0.310920386,0.47504298,0.824406072,4646,6034,-8946,451,-3801,-1231,461,-591,393,0
107873268,11331,5302,7067,-0.767357145,0.579603102,-0.272487239,0.496940883,0.824289044,-2542,1858,-4894,359,-4115,-1806,425,-577,403,0
107893268,9056,3553,9672,-0.713055676,0.66370157,-0.22268587,0.517685836,0.825861704,-5358,-144,-2350,802,-4313,-2000,401,-561,394,0
107913268,10474,1807,12935,-0.643285282,0.746218622,-0.167017929,0.531010415,0.830211116,-220,-1872,1458,1382,-4517,-1809,385,-561,383,0
107933268,4222,861,14621,-0.535896963,0.836522503,-0.109527034,0.542504655,0.832235184,-9450,-1926,2018,1611,-5457,-1673,341,-521,319,0
107953268,4213,3340,13679,-0.435498886,0.897381892,-0.066075484,0.55503371,0.828510806,-6042,4668,-1980,1481,-4650,-1409,285,-507,298,0
107973268,5014,145,18036,-0.338637145,0.940355476,-0.02558896,0.567549532,0.822213581,-1178,-568,5288,1298,-4246,-1145,225,-501,288,0
107993268,4647,-119,18294,-0.256373236,0.966290934,0.018155782,0.580074802,0.813596606,868,362,4926,1541,-3505,-1112,183,-453,291,0
108013268,3376,-95,18052,-0.172789652,0.982675817,0.066193121,0.594469417,0.800553452,1076,2004,3904,1786,-3436,-1183,157,-443,275,0
108033268,2901,522,16014,-0.089415416,0.990572438,0.103664298,0.613535419,0.781922385,2952,4576,-424,1558,-3428,-1288,97,-427,284,0
108053268,-122,-1156,17366,0.00963283,0.990376167,0.138274246,0.637338908,0.757089583,72,2288,2288,1464,-3885,-1434,75,-405,267,0
108073268,-961,-857,15728,0.119079433,0.979412489,0.163312548,0.661952842,0.730476603,2050,3738,-612,1270,-4368,-1388,-3,-395,303,0
108093268,-1776,-850,16260,0.218339531,0.960222742,0.174186005,0.687872663,0.703434717,3726,4114,1104,876,-4044,-1411,-29,-403,284,0
108113268,-2735,-1596,14681,0.307443954,0.93522989,0.175233945,0.721304908,0.668677062,4750,2600,-1226,682,-3629,-1871,-97,-391,313,0
108133268,-3250,-1151,12545,0.408192007,0.899246542,0.155760113,0.763709815,0.624650504,6920,2798,-4366,192,-3992,-2591,-145,-401,347,0
108153268,-13368,-3618,16274,0.515466228,0.844770476,0.14053214,0.803923717,0.575542619,-9776,-2624,4886,691,-4559,-2560,-173,-409,383,0
108173268,-11556,-2795,14525,0.614776302,0.774406489,0.1448877,0.833572697,0.530273493,-2886,-842,3702,1431,-4685,-1694,-223,-411,426,0
108193268,-11552,-1381,12936,0.704288112,0.694482623,0.140653512,0.857227955,0.492088076,104,1910,3206,1186,-4745,-1417,-241,-417,447,0
108213268,-11502,-975,8712,0.783954855,0.605853908,0.125718078,0.880183361,0.453767678,2780,2192,-2382,1012,-4645,-1623,-281,-429,482,0
108233268,-13182,-1602,10196,0.864596412,0.487161539,0.108694044,0.903747093,0.409367785,2202,382,4656,1376,-5820,-1690,-295,-421,519,0
108253268,-13671,-493,5437,0.932703163,0.344700819,0.084119359,0.928877126,0.35497432,3432,1802,-264,1830,-6233,-1897,-329,-445,613,0
108273268,-18393,-1532,4447,0.97112168,0.221839985,0.050835112,0.944229808,0.318365237,-4808,-1400,1754,1193,-5152,-1757,-359,-467,690,0
108293268,-18469,-556,1079,0.988390755,0.129106473,0.026072912,0.953181947,0.293447217,-4480,-258,-2070,905,-3711,-1171,-341,-483,706,0
108313268,-20568,-1609,-1302,0.99657937,-0.015265558,0.002022244,0.959776947,0.272210134,-8300,-3152,-1920,873,-5875,-1016,-339,-477,757,0
108333268,-18650,-930,2482,0.983239751,-0.159672353,-0.001188577,0.969957065,0.232502561,-4920,-1948,10736,1708,-6273,-21,-335,-485,810,0
108353268,-13874,943,-57,0.959603895,-0.265912581,-0.013151835,0.97809496,0.194656318,3744,1508,9008,1648,-4758,-52,-323,-491,883,0
108373268,-12929,1005,-5928,0.933782771,-0.34385407,-0.031203282,0.982256172,0.169516964,4826,1026,-572,1226,-3271,-321,-325,-491,908,0
108393268,-15543,567,-8752,0.899260912,-0.423673466,-0.048913904,0.98447473,0.150960669,-1530,-490,-3588,1014,-3484,-377,-297,-503,949,0
108413268,-16496,10,-11495,0.849151559,-0.514767023,-0.062820624,0.986577414,0.130281938,-5060,-2104,-6030,1076,-4209,-153,-257,-517,979,0
108433268,-16353,152,-7493,0.785740614,-0.605648048,-0.072134787,0.989370346,0.100031309,-7002,-2130,5240,1285,-4883,327,-243,-519,1005,0
108453272,-11592,1859,-6981,0.731121667,-0.668989794,-0.083063561,0.990947269,0.070698051,702,1048,8234,1164,-3742,483,-209,-525,1059,0
108473272,-9290,2761,-11733,0.672311822,-0.725245703,-0.102435888,0.990225317,0.051398423,3550,2242,362,1074,-3306,80,-191,-519,1066,0
108493272,-12354,1009,-13764,0.607237251,-0.777692879,-0.12068061,0.988942651,0.031306636,-4824,-2000,-1880,1172,-3594,92,-143,-543,1090,0
108513272,-11940,1664,-14341,0.533174923,-0.82763538,-0.136964399,0.987290166,0.005593866,-6472,-1204,-1350,1201,-3945,429,-135,-559,1120,0
108533272,-10514,1864,-13190,0.461712865,-0.867609281,-0.146989057,0.985516595,-0.020242084,-6026,-1116,2276,926,-3737,667,-89,-545,1127,0
108553272,-5539,3532,-15088,0.382319469,-0.902659478,-0.163345569,0.981962398,-0.048625268,1492,1742,-456,1103,-3735,781,-37,-573,1130,0
108573272,-3992,3913,-14029,0.288463961,-0.932205055,-0.187850828,0.976195095,-0.070817249,1518,1760,2686,1193,-4199,565,-19,-581,1145,0
108593272,-5312,2775,-14728,0.208905164,-0.949391142,-0.20657622,0.971302081,-0.085407594,-3890,-1216,1814,944,-3646,364,45,-591,1178,0
108613272,-5131,2882,-15435,0.145189911,-0.95829878,-0.219564031,0.966347307,-0.10633979,-5666,-1424,652,742,-3066,717,73,-607,1163,0
108633272,-1802,4453,-14390,0.084835596,-0.962860832,-0.231580022,0.960310165,-0.132706121,-854,1438,2880,556,-2816,1041,111,-615,1153,0
108653272,821,5751,-15060,0.00408354,-0.962362083,-0.24913249,0.953529585,-0.149479726,1826,3514,1570,633,-3491,717,115,-625,1155,0
108673272,-1070,3278,-14378,-0.056681935,-0.957164146,-0.262980805,0.946142007,-0.17154474,-4130,-2012,2688,609,-2959,921,147,-623,1132,0
108693272,2915,6027,-14548,-0.121099913,-0.944862681,-0.285953878,0.93497552,-0.195605099,1912,2890,2004,737,-2976,1151,195,-633,1153,0
108713272,2284,5745,-17064,-0.180348225,-0.929069497,-0.307022578,0.923932001,-0.216414943,-1372,1576,-3588,718,-2899,1051,203,-631,1144,0
108733272,2561,6761,-16560,-0.242253307,-0.908922926,-0.32593229,0.913357556,-0.234677233,-2930,3066,-3240,528,-3162,932,227,-625,1140,0
108753272,1903,5521,-14194,-0.300066629,-0.885466773,-0.343463859,0.90204264,-0.254162045,-6218,16,686,438,-3194,983,237,-651,1114,0
108773272,5912,6604,-11382,-0.35341515,-0.857386924,-0.365281825,0.888808591,-0.271914834,282,1586,5484,425,-2815,1098,269,-653,1115,0
108793272,5692,7241,-13843,-0.398964632,-0.826785043,-0.390478915,0.873553187,-0.288611108,-1728,2010,-510,602,-2719,1176,291,-657,1101,0
108813272,5386,7123,-14611,-0.429806683,-0.802934803,-0.40937981,0.858320536,-0.30990296,-3440,1208,-2904,252,-2266,1203,297,-659,1082,0
108833272,6584,6815,-10686,-0.464470513,-0.771158133,-0.435235129,0.838747554,-0.331441868,-2076,-186,3980,377,-2537,1473,329,-675,1078,0
108853272,6789,7675,-10009,-0.490449626,-0.736374745,-0.470608925,0.814149868,-0.350046406,-2534,552,4224,567,-2356,1638,325,-691,1083,0
108873272,7536,8259,-9777,-0.500533277,-0.707696924,-0.508458223,0.784988897,-0.370749328,-1344,616,3744,496,-1766,1882,315,-705,1052,0
108893272,7665,9314,-9799,-0.493987612,-0.687698709,-0.548267444,0.75396093,-0.387967246,-870,1614,3032,555,-956,1868,341,-691,1052,0
108913272,5947,8776,-10060,-0.463793661,-0.682768101,-0.587673175,0.717799406,-0.409731606,-3334,-614,2290,482,92,2122,315,-727,1033,0
108933272,7354,10784,-8789,-0.412820714,-0.686473185,-0.629996631,0.677866761,-0.42881358,1224,2344,5090,500,1294,2190,295,-711,1053,0
108953272,6031,10636,-11644,-0.341301519,-0.704483785,-0.659786298,0.640039463,-0.452586688,862,1160,-110,297,2393,2049,253,-725,1035,0
108973272,5948,11443,-10751,-0.25085507,-0.730959387,-0.675582586,0.605382144,-0.482104897,3758,2402,2682,-186,3552,1984,209,-751,1062,0
108993272,6671,12154,-13188,-0.142976629,-0.756515192,-0.679932998,0.57453789,-0.514110658,8842,3646,-1316,-326,4543,1955,173,-755,1048,0
109013272,2673,10402,-13640,-0.026547879,-0.776266882,-0.669088898,0.549215466,-0.550615856,4600,378,-1614,-591,4842,1838,99,-739,1072,0
109033272,380,8429,-18330,0.091396388,-0.785165675,-0.647353868,0.521854963,-0.594750443,3870,-3144,-10850,-516,4587,2152,83,-729,1059,0
109053272,-10662,4996,8310,0.248839077,-0.758851502,-0.633343919,0.482835857,-0.636769282,-13880,-9122,-23208,-769,5526,1902,-15,-747,1070,0
109073272,-3481,12138,-16009,0.363339288,-0.742189871,-0.585864306,0.4682939,-0.681147667,5176,6132,-7506,-1212,4705,2307,-53,-707,1050,0
109093272,-6651,8499,-13951,0.485262986,-0.704811729,-0.5315979,0.467645295,-0.716570387,2788,274,-4584,-1404,5596,1892,-121,-683,1013,0
109113272,-9516,8018,-11575,0.604985468,-0.645885641,-0.471338265,0.469865926,-0.749487931,924,1072,-1670,-1485,5716,2062,-185,-657,991,0
109133272,-10954,6427,-10941,0.701014951,-0.579374984,-0.415201048,0.474342743,-0.775134185,1216,-444,-2722,-1208,5056,1952,-205,-641,977,0
109153272,-14231,6224,-11309,0.783832263,-0.503559278,-0.357332566,0.480234809,-0.797149368,-2624,910,-5984,-1108,4841,2060,-259,-607,932,0
109173272,-16509,4670,-10066,0.863794595,-0.408666924,-0.28336853,0.495839166,-0.815345148,-4524,82,-6574,-1526,5403,2532,-281,-605,923,0
109193272,-16793,4364,-8790,0.93197469,-0.291219497,-0.198824414,0.522526059,-0.82293495,-2768,2236,-7882,-1917,6024,2988,-319,-549,848,0
109213272,-16047,3321,-7240,0.976387469,-0.164404396,-0.113838354,0.559279596,-0.814742776,194,2966,-9034,-2162,6032,3144,-349,-525,802,0
109233272,-18944,178,-3075,0.995362636,-0.041372562,-0.034609775,0.595844138,-0.795508601,-5058,-810,-4686,-1961,5334,3012,-341,-493,717,0
109253272,-18869,-493,-2815,0.994071772,0.068457207,0.038933121,0.628849268,-0.769647632,-5010,310,-7920,-1652,4722,3041,-361,-461,670,0
109273272,-18032,-893,-962,0.976666048,0.170839097,0.109682479,0.668066455,-0.728952887,-3944,1876,-7600,-1921,4326,3217,-363,-441,641,0
109293272,-22036,-2276,-3277,0.936733954,0.293509983,0.179392865,0.715658776,-0.667287327,-13178,1332,-16022,-2365,4824,3500,-325,-385,575,0
109313272,-15183,-1590,4780,0.870338377,0.426309353,0.241816226,0.766490769,-0.58792966,-1716,4864,-4376,-2552,5514,3955,-325,-385,545,0
109333272,-11297,-1797,5838,0.793376606,0.536715819,0.28579422,0.80763704,-0.508370245,3562,5702,-5820,-2205,4668,3362,-279,-357,447,0
109353272,-13043,-5381,10210,0.72179256,0.617186328,0.314238085,0.83559892,-0.443383733,-2358,-596,230,-1551,3698,2661,-245,-357,433,0
109373272,-13585,-5218,9637,0.659014395,0.672684534,0.339731881,0.855931312,-0.383725811,-5648,540,-2852,-1149,2911,2578,-227,-343,414,0
109393272,-13823,-5663,10506,0.576974679,0.734563513,0.362636664,0.878287952,-0.307433473,-8864,374,-3162,-1432,3528,3156,-189,-329,360,0
109413272,-9689,-4805,9971,0.47830325,0.796250008,0.377575483,0.900089376,-0.214931393,-3820,2562,-6216,-1678,3810,3641,-153,-313,351,0
109433272,-8534,-5550,11965,0.388323821,0.842270896,0.381718905,0.91557496,-0.125320919,-4454,1168,-3718,-1569,3138,3440,-103,-325,300,0
109453272,-8233,-8203,14732,0.302214451,0.874191767,0.388716193,0.920278672,-0.051435247,-6676,-4012,754,-932,2987,2946,-75,-325,336,0
109473272,-7056,-6526,14225,0.228226734,0.890885558,0.402587279,0.916329721,0.016380411,-6802,-178,-780,-237,2397,2896,-21,-317,297,0
109493272,-5035,-4981,14751,0.150636835,0.902608944,0.414172518,0.908116993,0.085031625,-5282,3344,-56,16,2424,2950,-9,-311,291,0
109513272,-2693,-5773,14453,0.068059925,0.911940865,0.415793069,0.897114567,0.162744408,-3252,1758,-964,-246,2393,3245,55,-311,309,0
109533272,-1325,-5853,14871,-0.013554431,0.919304475,0.403488021,0.883499242,0.245434865,-3192,1220,-364,-538,2251,3442,101,-299,273,0
109553272,836,-6666,16293,-0.091560896,0.919627186,0.391167927,0.86561602,0.317465331,-1352,-808,2456,-300,2184,3053,113,-305,280,0
109573272,326,-6412,14199,-0.164831132,0.912822006,0.382049841,0.842845887,0.382674081,-4904,-622,-1500,10,2246,2912,155,-315,278,0
109593272,570,-5587,13782,-0.243075529,0.904762125,0.356320431,0.818010524,0.453333821,-7046,252,-2036,-345,2467,3287,189,-305,291,0
109613272,3478,-5476,14824,-0.313244469,0.893850982,0.325405222,0.791989163,0.517052025,-3428,-472,392,-363,2161,3072,227,-319,282,0
109633272,4836,-1873,11924,-0.381843351,0.87622696,0.296914302,0.764726751,0.571613995,-2866,5858,-4858,-153,2211,2718,235,-329,277,0
109653272,6729,-5586,12586,-0.446604403,0.854139891,0.26780717,0.737503549,0.619307529,-1210,-2586,-2838,-202,2229,2569,283,-325,305,0
109673272,6466,-4804,12831,-0.500570439,0.833490714,0.233640891,0.713747196,0.659295283,-3570,-2096,-1626,-355,2010,2381,319,-355,312,0
109693272,6220,-3339,13811,-0.545371197,0.813488703,0.200208305,0.691296585,0.693175744,-5592,-170,1058,-240,1856,2157,325,-353,285,0
109713272,6742,-2387,14066,-0.583562961,0.793074524,0.171441364,0.664100127,0.726663943,-5806,840,2262,118,1671,2125,337,-369,315,0
109733272,6383,-3107,12846,-0.610710321,0.77706535,0.147891028,0.629535669,0.761827197,-7428,-1448,350,436,1208,2258,367,-385,313,0
109753272,10305,-661,10157,-0.64083492,0.756836681,0.122240778,0.588458993,0.798417864,-342,2752,-4528,689,1070,2327,381,-379,334,0
109773272,8967,-1677,9942,-0.656761937,0.747481151,0.090804009,0.549345426,0.829965932,-3608,-390,-4608,383,521,2396,387,-379,328,0
109793272,7510,-3449,12647,-0.657780616,0.749992397,0.05642507,0.510447888,0.857507374,-6692,-5218,832,114,40,2535,395,-401,350,0
109813272,5387,-2176,12376,-0.625619974,0.779085478,0.011363797,0.462924715,0.885888627,-9966,-4124,-606,-51,-1512,3028,373,-425,352,0
109833272,5054,2828,10157,-0.591077561,0.804517826,-0.045511977,0.412003983,0.909713399,-9304,4162,-6036,-408,-1701,3235,373,-441,331,0
109853272,12758,3214,14294,-0.551830592,0.826087546,-0.109348133,0.360526344,0.926078435,7500,2902,1450,-775,-1812,3265,321,-463,292,0
109873272,10515,5172,14141,-0.495140268,0.855003728,-0.151711501,0.317231003,0.936001327,4856,5512,200,-342,-2495,2374,309,-481,316,0
109893272,2720,3112,14544,-0.405321833,0.89489847,-0.185875441,0.266100463,0.945868637,-8092,178,-136,-230,-3403,2457,277,-485,310,0
109913272,4717,1679,16484,-0.311884092,0.927631808,-0.205748849,0.204708127,0.957113488,-854,-3462,2612,77,-3536,2703,237,-491,303,0
109933272,4068,3297,15368,-0.268315081,0.943503663,-0.194692905,0.161276534,0.967648707,-672,252,-180,997,-1543,1608,177,-493,287,0
109953272,4285,4499,15797,-0.212387664,0.957541283,-0.195457014,0.112272335,0.974424331,1640,2696,194,577,-2042,1957,151,-467,290,0
109973272,3706,3241,17162,-0.190749774,0.962841164,-0.191703796,0.075386381,0.978709271,1162,234,2772,480,-630,1458,141,-479,292,0
109993272,1118,3305,11425,-0.200842718,0.961566474,-0.187634433,0.042664608,0.981458332,-4352,496,-8660,451,679,1286,147,-457,289,0
110013272,477,795,16686,-0.139396448,0.974164678,-0.178136084,-0.004465174,0.984111315,-3730,-4350,1488,578,-2094,1834,137,-459,311,0
110033272,3959,3185,19540,-0.077231884,0.984636744,-0.156919591,-0.050549716,0.986372491,5498,1242,6804,1089,-2417,1797,113,-455,282,0
110053272,1285,1880,17503,-0.024230499,0.991952633,-0.1243733,-0.091443043,0.988012655,1788,-316,2502,1420,-1970,1595,63,-435,281,0
110073272,4809,-720,18266,0.0047202,0.995892083,-0.09039789,-0.122323375,0.988337195,10024,-4524,3910,1258,-1359,1277,29,-413,288,0
110093272,-2320,1543,15534,0.050121814,0.996903641,-0.060454391,-0.15491797,0.986030919,-3094,1142,-1608,1252,-1629,1360,-1,-381,300,0
110113272,-974,524,20438,0.11229185,0.993617028,-0.00855343,-0.189712763,0.981740339,1800,784,8322,2029,-2559,1604,-9,-385,313,0
110133272,-2272,-1390,18884,0.174375167,0.982874002,0.058657715,-0.21856747,0.973969383,1198,-860,5564,2544,-2613,1604,-43,-333,329,0
110153272,-3071,-1921,17408,0.242271593,0.960620454,0.135495996,-0.238366963,0.96160022,1888,626,3362,2922,-3081,1548,-63,-299,316,0
110173272,-8066,-4889,13907,0.328234725,0.917154144,0.226805507,-0.25351279,0.940632744,-5486,-2444,-2300,3248,-3866,1881,-109,-259,339,0
110193272,-7114,-5102,16877,0.401003167,0.858426621,0.324028567,-0.270404417,0.908244595,-1010,302,5660,3314,-4102,2475,-141,-225,375,0
110213272,-6342,-6103,15541,0.448708422,0.788755402,0.431775718,-0.277372649,0.864313772,2184,1654,5362,3662,-3725,2742,-153,-167,434,0
110233272,-5150,-6138,13089,0.464342501,0.724369919,0.532580937,-0.276421431,0.815186059,5092,4524,2622,3394,-2660,2630,-163,-119,486,0
110253272,-5462,-7044,11930,0.469019882,0.662653176,0.62113363,-0.262445964,0.768709419,4580,5130,2326,3149,-2085,2081,-165,-83,505,0
110273272,-6984,-9175,11753,0.466990447,0.594048595,0.711474825,-0.235502873,0.718564115,1414,3194,4202,3365,-1844,1928,-149,-55,579,0
110293272,-7619,-11196,10788,0.454408593,0.520229084,0.805083939,-0.199388094,0.662052853,-296,1368,4682,3552,-1508,1941,-155,-41,608,0
110313272,-7938,-13468,2649,0.435521286,0.443334829,0.896640916,-0.157671148,0.601952573,-1660,-1386,-9448,3115,-1078,1866,-117,-7,662,0
110333272,-6251,-12465,4956,0.418042019,0.389385164,0.958360911,-0.136011941,0.555873049,1214,1914,-2836,2044,-1296,1562,-127,15,655,0
110353272,-6134,-13567,7480,0.396732043,0.342239663,1.014463373,-0.116553053,0.511917137,770,752,3872,1937,-1082,1477,-109,29,708,0
110373272,-7004,-15838,5008,0.37037207,0.298737463,1.06924247,-0.094813472,0.467515033,-1868,-2914,242,1823,-529,1450,-85,45,721,0
110393276,-6742,-16088,3744,0.337889191,0.267110929,1.119267406,-0.07612738,0.425174974,-2418,-2674,-1270,1606,422,1376,-83,51,717,0
110413276,-5685,-15806,3883,0.299450014,0.222203052,1.181282404,-0.051722337,0.37061207,-1560,-1262,514,2073,155,1688,-71,49,751,0
110433276,-2954,-14528,-956,0.263765831,0.183071798,1.235455078,-0.028886598,0.32114548,2794,1844,-8132,1590,616,1350,-51,57,792,0
110453276,-2940,-14275,-2372,0.245153513,0.167177603,1.260326141,-0.0198825,0.297456048,2184,2594,-10530,463,621,650,-37,63,794,0
110473276,-3961,-15612,-76,0.238946028,0.179945033,1.257735787,-0.028095098,0.299109673,-102,-68,-6220,-516,909,123,-45,65,788,0
110493276,-4368,-15465,1094,0.230930619,0.21115651,1.243877085,-0.04674983,0.310460789,-1208,104,-4852,-1047,1771,43,-31,69,763,0
