timestamp,ax,ay,az,roll1,roll2,pitch,yaw1,yaw2,fx,fy,fz,gx,gy,gz,mx,my,mz,step
110772468,15917,-2369,-2704,0.993372766,0.11493715,0.165047606,-0.999194395,-0.040131793,0,0,0,43,-32,20,1139,173,341,1
110792468,15955,-2454,-2698,0.993767919,0.111468932,0.166768747,-0.99950656,-0.031410759,0,0,0,47,-23,16,1119,147,367,1
110812468,15866,-2502,-2772,0.993767919,0.111468932,0.166768747,-0.999450216,-0.033155178,0,0,0,50,-25,16,1149,167,362,1
110832472,15889,-2504,-2807,0.993767919,0.111468932,0.166768747,-0.999450216,-0.033155178,0,0,0,63,-24,16,1117,169,365,1
110852472,15896,-2540,-2723,0.993767919,0.111468932,0.165047606,-0.999390827,-0.034899497,0,0,0,53,-28,21,1125,171,371,1
110872472,15961,-2404,-2719,0.993571856,0.113203214,0.165047606,-0.999328394,-0.036643709,0,0,0,54,-28,12,1125,167,354,1
110892472,15937,-2387,-2747,0.993571856,0.113203214,0.165047606,-0.999262916,-0.038387809,0,0,0,71,-19,12,1125,173,349,1
110912472,15865,-2439,-2785,0.993571856,0.113203214,0.165047606,-0.999262916,-0.038387809,0,0,0,63,-27,18,1137,177,351,1
110932472,15861,-2521,-2840,0.993571856,0.113203214,0.165047606,-0.999194395,-0.040131793,0,0,0,63,-23,14,1127,169,348,1
110952472,15890,-2505,-2786,0.993571856,0.113203214,0.165047606,-0.99912283,-0.041875654,0,0,0,59,-25,9,1125,177,327,1
110972472,15886,-2467,-2796,0.993571856,0.113203214,0.165047606,-0.999048222,-0.043619387,0,0,0,60,-26,14,1117,161,347,1
110992472,15910,-2399,-2736,0.993571856,0.113203214,0.165047606,-0.999048222,-0.043619387,0,0,0,63,-26,12,1131,169,344,1
111012472,15891,-2429,-2798,0.993571856,0.113203214,0.165047606,-0.99897057,-0.045362988,0,0,0,63,-21,16,1139,177,344,1
111032472,15883,-2488,-2691,0.993372766,0.11493715,0.165047606,-0.998889875,-0.047106451,0,0,0,64,-31,14,1117,181,341,1
111052472,15925,-2425,-2713,0.993372766,0.11493715,0.163325962,-0.998889875,-0.047106451,0,0,0,71,-23,9,1113,165,321,1
111072472,15952,-2396,-2848,0.993372766,0.11493715,0.163325962,-0.998806137,-0.04884977,0,0,0,71,-27,16,1125,165,331,1
111092472,15858,-2500,-2856,0.993372766,0.11493715,0.163325962,-0.998719357,-0.05059294,0,0,0,59,-22,12,1135,177,326,1
111112472,15877,-2537,-2923,0.993372766,0.11493715,0.163325962,-0.998629535,-0.052335956,0,0,0,70,-26,22,1123,175,335,1
111132472,15889,-2585,-2796,0.993372766,0.11493715,0.163325962,-0.998629535,-0.052335956,0,0,0,63,-21,12,1121,175,345,1
111152472,15891,-2433,-2691,0.993372766,0.11493715,0.163325962,-0.99853667,-0.054078813,0,0,0,62,-23,16,1125,183,333,1
111172472,15927,-2405,-2758,0.993372766,0.11493715,0.163325962,-0.998440764,-0.055821505,0,0,0,66,-29,23,1131,171,348,1
111192472,15886,-2539,-2749,0.99317065,0.116670737,0.163325962,-0.998440764,-0.055821505,0,0,0,61,-24,20,1123,171,344,1
111212476,15901,-2506,-2751,0.99317065,0.116670737,0.163325962,-0.998341817,-0.057564027,0,0,0,58,-24,20,1135,167,328,1
111232476,15866,-2397,-2710,0.993571856,0.113203214,0.165047606,-0.99897057,-0.045362988,0,0,0,49,-20,21,1121,155,324,1
111252476,15899,-2430,-2729,0.993571856,0.113203214,0.163325962,-0.998889875,-0.047106451,0,0,0,60,-26,24,1127,187,340,1
111272476,15926,-2482,-2818,0.993571856,0.113203214,0.163325962,-0.998806137,-0.04884977,0,0,0,59,-28,17,1119,167,348,1
111292476,15910,-2422,-2794,0.993571856,0.113203214,0.163325962,-0.998806137,-0.04884977,0,0,0,54,-21,17,1115,175,346,1
111312476,15877,-2465,-2870,0.993571856,0.113203214,0.163325962,-0.998719357,-0.05059294,0,0,0,66,-21,18,1111,161,357,1
111332476,15891,-2459,-2909,0.993571856,0.113203214,0.163325962,-0.998629535,-0.052335956,0,0,0,62,-16,21,1133,159,348,1
111352476,15897,-2422,-2918,0.993372766,0.11493715,0.163325962,-0.99853667,-0.054078813,0,0,0,52,-12,19,1119,183,352,1
111372476,15806,-2397,-2724,0.993372766,0.11493715,0.163325962,-0.99853667,-0.054078813,0,0,0,53,-24,15,1119,177,333,1
111392476,15922,-2403,-2742,0.993767919,0.111468932,0.163325962,-0.999048222,-0.043619387,0,0,0,65,-24,17,1135,155,351,1
111412476,15899,-2402,-2829,0.993767919,0.111468932,0.163325962,-0.99897057,-0.045362988,0,0,0,64,-22,18,1121,167,325,1
111432476,15898,-2326,-2813,0.994150964,0.107999356,0.165047606,-0.999390827,-0.034899497,0,0,0,62,-21,15,1129,157,344,1
111452476,15925,-2452,-2786,0.994337944,0.106264071,0.165047606,-0.999657325,-0.026176948,0,0,0,67,-29,15,1121,149,352,1
111472476,15898,-2453,-2806,0.994337944,0.106264071,0.165047606,-0.999610115,-0.027921639,0,0,0,53,-24,14,1119,177,322,1
111492476,15918,-2383,-2858,0.994337944,0.106264071,0.165047606,-0.99955986,-0.029666244,0,0,0,54,-27,18,1133,171,329,1
111512476,15881,-2467,-2726,0.994337944,0.106264071,0.165047606,-0.99955986,-0.029666244,0,0,0,53,-30,22,1111,173,340,1
111532476,15911,-2408,-2706,0.994521895,0.104528463,0.165047606,-0.999742609,-0.022687334,0,0,0,50,-20,21,1137,157,319,1
111552476,15949,-2355,-2645,0.994521895,0.104528463,0.165047606,-0.999742609,-0.022687334,0,0,0,51,-23,16,1115,179,363,1
111572476,15920,-2333,-2662,0.994521895,0.104528463,0.165047606,-0.99970149,-0.024432178,0,0,0,43,-24,18,1129,171,353,1
111592480,15901,-2372,-2671,0.994521895,0.104528463,0.165047606,-0.999657325,-0.026176948,0,0,0,42,-19,16,1131,161,351,1
111612480,15902,-2367,-2647,0.994521895,0.104528463,0.165047606,-0.999610115,-0.027921639,0,0,0,47,-28,22,1129,159,346,1
111632480,15944,-2410,-2601,0.994521895,0.104528463,0.165047606,-0.999610115,-0.027921639,0,0,0,45,-19,17,1123,163,339,1
111652480,15977,-2358,-2652,0.994521895,0.104528463,0.165047606,-0.99955986,-0.029666244,0,0,0,37,-10,15,1109,177,346,1
111672480,15868,-2293,-2762,0.994337944,0.106264071,0.163325962,-0.99950656,-0.031410759,0,0,0,40,-23,20,1129,171,337,1
111692480,15913,-2287,-2712,0.994702817,0.102792537,0.165047606,-0.999742609,-0.022687334,0,0,0,40,-19,16,1133,155,347,1
111712480,15930,-2454,-2744,0.994880709,0.101056297,0.165047606,-0.999876632,-0.015707317,0,0,0,43,-16,13,1127,153,321,1
111732480,15891,-2348,-2795,0.994880709,0.101056297,0.165047606,-0.999876632,-0.015707317,0,0,0,40,-18,12,1133,175,330,1
111752480,15899,-2341,-2853,0.99505557,0.09931975,0.165047606,-0.999945169,-0.010471784,0,0,0,45,-6,14,1115,141,357,1
111772480,15859,-2255,-2765,0.99505557,0.09931975,0.165047606,-0.99992537,-0.012217001,0,0,0,45,-22,8,1113,179,360,1
111792480,15962,-2390,-2707,0.99505557,0.09931975,0.165047606,-0.999902524,-0.01396218,0,0,0,37,-24,9,1109,169,361,1
111812480,15944,-2400,-2728,0.9952274,0.0975829,0.165047606,-0.999975631,-0.00698126,0,0,0,48,-24,12,1117,155,376,1
111832480,15932,-2333,-2775,0.9952274,0.0975829,0.165047606,-0.999961923,-0.008726535,0,0,0,51,-15,4,1125,175,337,1
111852480,15923,-2397,-2759,0.9952274,0.0975829,0.165047606,-0.999945169,-0.010471784,0,0,0,53,-14,4,1129,165,364,1
111872480,15862,-2375,-2653,0.9952274,0.0975829,0.165047606,-0.999945169,-0.010471784,0,0,0,51,-22,7,1117,161,363,1
111892480,15911,-2343,-2701,0.9952274,0.0975829,0.165047606,-0.99992537,-0.012217001,0,0,0,56,-21,9,1121,173,355,1
111912480,15968,-2383,-2657,0.99505557,0.09931975,0.165047606,-0.999902524,-0.01396218,0,0,0,53,-23,9,1137,159,353,1
111932480,15908,-2437,-2743,0.995396198,0.095845753,0.165047606,-0.999961923,-0.008726535,0,0,0,55,-8,8,1113,153,347,1
111952480,15881,-2481,-2771,0.9952274,0.0975829,0.165047606,-0.999961923,-0.008726535,0,0,0,61,-17,9,1107,161,348,1
111972484,15933,-2483,-2691,0.9952274,0.0975829,0.165047606,-0.999945169,-0.010471784,0,0,0,54,-15,6,1127,169,351,1
111992484,15901,-2350,-2711,0.9952274,0.0975829,0.165047606,-0.99992537,-0.012217001,0,0,0,34,-9,10,1125,173,363,1
112012484,15817,-2642,-2645,0.9952274,0.0975829,0.165047606,-0.999902524,-0.01396218,0,0,0,39,-5,8,1115,173,353,1
112032484,15920,-2578,-2652,0.9952274,0.0975829,0.165047606,-0.999876632,-0.015707317,0,0,0,13,5,16,1125,181,367,1
112052484,16066,-2274,-2566,0.9952274,0.0975829,0.163325962,-0.999847695,-0.017452406,0,0,0,5,-3,16,1109,167,368,1
112072484,16027,-2229,-2555,0.995396198,0.095845753,0.163325962,-0.999961923,-0.008726535,0,0,0,7,4,17,1109,145,339,1
112092484,15983,-2195,-2558,0.995396198,0.095845753,0.163325962,-0.999945169,-0.010471784,0,0,0,23,-3,9,1119,175,374,1
112112484,15936,-2269,-2491,0.995396198,0.095845753,0.163325962,-0.99992537,-0.012217001,0,0,0,22,-11,3,1111,175,366,1
112132484,16076,-2219,-2437,0.995396198,0.095845753,0.163325962,-0.999902524,-0.01396218,0,0,0,5,-6,-2,1125,173,347,1
112152484,15999,-1907,-2582,0.9952274,0.0975829,0.163325962,-0.999902524,-0.01396218,0,0,0,2,8,4,1111,159,382,1
112172484,15788,-2121,-2620,0.9952274,0.0975829,0.161603821,-0.999876632,-0.015707317,0,0,0,42,-4,-1,1129,165,359,1
112192484,15760,-2689,-2985,0.9952274,0.0975829,0.161603821,-0.999847695,-0.017452406,0,0,0,67,-5,-14,1113,167,357,1
112212484,15906,-2698,-3054,0.9952274,0.0975829,0.161603821,-0.999815712,-0.019197442,0,0,0,41,13,-19,1119,173,329,1
112232484,15783,-2498,-2894,0.9952274,0.0975829,0.161603821,-0.999780683,-0.02094242,0,0,0,43,27,-25,1113,173,356,1
112252484,15812,-2391,-2770,0.9952274,0.0975829,0.161603821,-0.999742609,-0.022687334,0,0,0,21,20,-20,1119,169,367,1
112272484,15897,-2357,-2616,0.9952274,0.0975829,0.161603821,-0.99970149,-0.024432178,0,0,0,-20,27,-16,1131,167,350,1
112292484,15963,-2284,-2582,0.99505557,0.09931975,0.161603821,-0.99970149,-0.024432178,0,0,0,-36,37,-13,1123,185,382,1
112312484,15855,-2533,-2518,0.995396198,0.095845753,0.161603821,-0.999657325,-0.026176948,0,0,0,-71,43,-16,1131,173,382,1
112332484,15871,-2209,-2381,0.995561965,0.094108313,0.161603821,-0.999610115,-0.027921639,0,0,0,-73,39,-22,1135,169,353,1
112352484,15806,-2036,-2433,0.995724698,0.092370587,0.163325962,-0.99955986,-0.029666244,0,0,0,-64,55,-30,1115,161,373,1
112372488,15818,-1988,-2355,0.995724698,0.092370587,0.163325962,-0.999450216,-0.033155178,0,0,0,-34,46,-34,1123,189,387,1
112392488,15904,-2255,-2096,0.995724698,0.092370587,0.163325962,-0.999390827,-0.034899497,0,0,0,1,40,-48,1123,167,362,1
112412488,15845,-2421,-2338,0.995724698,0.092370587,0.165047606,-0.999328394,-0.036643709,0,0,0,22,40,-53,1117,175,390,1
112432488,15794,-2387,-2235,0.995724698,0.092370587,0.166768747,-0.999262916,-0.038387809,0,0,0,18,59,-61,1127,175,392,1
112452488,15870,-2359,-2240,0.995724698,0.092370587,0.16848938,-0.999194395,-0.040131793,0,0,0,2,63,-65,1119,181,384,1
112472488,15807,-2412,-2185,0.995884399,0.09063258,0.16848938,-0.99912283,-0.041875654,0,0,0,-13,68,-64,1125,189,386,1
112492488,15807,-2643,-2395,0.995884399,0.09063258,0.170209499,-0.99897057,-0.045362988,0,0,0,-42,98,-71,1121,173,388,1
112512488,15714,-2771,-2764,0.995884399,0.09063258,0.170209499,-0.998889875,-0.047106451,0,0,0,-64,112,-74,1113,183,388,1
112532488,15570,-2983,-2946,0.996041065,0.088894297,0.1719291,-0.998806137,-0.04884977,0,0,0,-69,123,-78,1113,185,401,1
112552488,15574,-2932,-3359,0.996041065,0.088894297,0.173648178,-0.998440764,-0.055821505,-960,-174,-5038,-94,148,-87,1125,205,420,1
112572488,15501,-2952,-3450,0.996041065,0.088894297,0.175366726,-0.998026728,-0.06279052,-1086,-164,-4978,-89,183,-93,1113,201,396,1
112592488,15859,-3239,-4250,0.996041065,0.088894297,0.17708474,-0.997440783,-0.071497444,-342,-684,-6334,-49,189,-98,1123,197,399,1
112612488,15169,-3258,-4790,0.996041065,0.088894297,0.178802215,-0.996492859,-0.083677843,-1688,-646,-7100,-71,231,-114,1115,199,418,1
112632488,15036,-3235,-3878,0.996041065,0.088894297,0.182235525,-0.995724698,-0.092370587,-1908,-518,-4934,-74,230,-111,1117,205,407,1
112652488,15925,-4067,-3489,0.996345296,0.085416923,0.183951351,-0.9952274,-0.0975829,-96,-2116,-3940,-159,169,-85,1129,213,415,1
112672488,15607,-3739,-2674,0.996778878,0.080198924,0.187381315,-0.994880709,-0.101056297,-698,-1370,-2150,-286,178,-61,1103,233,408,1
112692488,15635,-3506,-2674,0.997314477,0.073238197,0.187381315,-0.994521895,-0.104528463,-618,-844,-2042,-323,170,-36,1115,231,443,1
112712488,15792,-2395,-3159,0.997801468,0.0662739,0.187381315,-0.994150964,-0.107999356,-286,1406,-2894,-283,180,-19,1109,225,410,1
112732488,15567,-2657,-3463,0.997801468,0.0662739,0.187381315,-0.993372766,-0.11493715,-722,852,-3328,-76,183,-49,1111,227,451,1
112752492,15403,-4023,-3273,0.997440783,0.071497444,0.189095443,-0.992757342,-0.120136839,-1030,-1886,-2768,125,134,-88,1115,239,449,1
112772492,15587,-4290,-3187,0.997185134,0.074978727,0.190808995,-0.992114701,-0.125333234,-622,-2338,-2396,140,172,-96,1097,235,450,1
112792492,15475,-4103,-3072,0.996778878,0.080198924,0.192521967,-0.991444861,-0.130526192,-798,-1870,-1952,154,211,-104,1107,235,467,1
112812492,15366,-4713,-3321,0.996345296,0.085416923,0.195946144,-0.990509463,-0.137444546,-982,-3060,-2264,193,231,-90,1109,233,458,1
112832492,15223,-4525,-4204,0.995884399,0.09063258,0.199367934,-0.989015863,-0.147809411,-1214,-2592,-3762,138,281,-71,1099,239,486,1
112852492,14920,-3821,-3708,0.995561965,0.094108313,0.199367934,-0.987688341,-0.156434465,-1754,-1114,-2464,101,290,-55,1111,239,485,1
112872492,15238,-3533,-4004,0.99505557,0.09931975,0.199367934,-0.986285602,-0.165047606,-1070,-514,-2764,104,300,-42,1111,233,484,1
112892492,15168,-3381,-3864,0.994702817,0.102792537,0.199367934,-0.98450318,-0.175366726,-1152,-212,-2172,146,317,-51,1101,251,481,1
112912492,15333,-2832,-3941,0.993960955,0.109734311,0.19765734,-0.982935349,-0.183951351,-766,884,-2006,181,337,-66,1099,249,489,1
112932492,15276,-2689,-3435,0.993372766,0.11493715,0.19765734,-0.981292664,-0.192521967,-826,1136,-692,218,319,-77,1093,247,536,1
112952492,15455,-3429,-3722,0.992546152,0.121869343,0.19765734,-0.97957525,-0.201077921,-424,-374,-1018,250,315,-76,1109,251,522,1
112972492,15159,-4105,-4459,0.991444861,0.130526192,0.19765734,-0.977415894,-0.211324796,-958,-1738,-2208,291,350,-89,1107,249,539,1
112992492,15206,-3576,-4473,0.990268069,0.139173101,0.19765734,-0.975149354,-0.221548498,-774,-648,-1862,286,389,-87,1101,233,536,1
113012492,15243,-4128,-4647,0.989015863,0.147809411,0.19765734,-0.972775878,-0.231747903,-626,-1776,-1870,364,395,-98,1091,249,543,1
113032492,15062,-4031,-4447,0.987413807,0.158158067,0.19765734,-0.969872015,-0.243615012,-892,-1584,-1092,343,452,-107,1085,261,575,1
113052492,15187,-3132,-3172,0.986285602,0.165047606,0.19765734,-0.967267753,-0.253757945,-546,234,1824,297,454,-133,1093,259,551,1
113072492,15558,-2800,-2407,0.984807753,0.173648178,0.19765734,-0.965016494,-0.262189179,290,904,3690,331,445,-149,1091,251,577,1
113092492,15741,-2407,-1872,0.982935349,0.183951351,0.195946144,-0.963162567,-0.268919821,726,1672,5016,366,453,-160,1069,269,595,1
113112492,16097,-2151,-986,0.981292664,0.192521967,0.194234351,-0.96174131,-0.273959219,1494,2158,6998,384,436,-188,1085,273,598,1
113132496,16991,-1108,88,0.97957525,0.201077921,0.192521967,-0.96174131,-0.273959219,3304,4228,9224,342,350,-208,1069,275,628,1
113152496,17811,311,2372,0.978508985,0.206204185,0.189095443,-0.964095404,-0.265556117,4886,7008,13634,211,142,-193,1071,279,622,1
113172496,19618,1143,3953,0.978147601,0.207911691,0.182235525,-0.968583161,-0.248689887,8326,8518,16308,149,-141,-136,1069,283,632,1
113192496,21261,854,4127,0.978147601,0.207911691,0.17708474,-0.973975967,-0.226651307,11378,7726,15916,93,-395,-72,1067,277,601,1
113212496,21574,1318,6058,0.97957525,0.201077921,0.1719291,-0.980614659,-0.195946144,11756,8522,18848,-238,-611,-77,1067,287,607,1
113232496,23828,2917,10461,0.981958713,0.189095443,0.158158067,-0.989525789,-0.144356201,15880,11280,26110,-324,-1326,314,1069,281,581,1
113252496,24146,2487,5548,0.981292664,0.192521967,0.133986185,-0.994521895,-0.104528463,16186,9642,14818,257,-1192,601,1083,283,534,1
113272496,27508,-3,3048,0.976672278,0.214735327,0.104528463,-0.998341817,-0.057564027,22598,3570,8188,965,-1738,963,1079,279,497,1
113292496,23669,-5174,1284,0.970716482,0.240228042,0.083677843,-0.999998477,-0.001745328,14750,-7674,2718,1090,-2271,913,1097,241,453,1
113312496,29095,-13460,-5740,0.962691746,0.270600446,0.078459096,-0.999328394,0.036643709,25610,-24626,-12828,1205,-1815,603,1107,215,366,1
113332496,25699,-12839,-13045,0.951056516,0.309016994,0.080198924,-0.997801468,0.0662739,18884,-23342,-28636,1511,-1806,402,1099,219,355,1
113352496,21191,-9025,-11075,0.941470545,0.337095258,0.085416923,-0.994150964,0.107999356,10016,-15492,-26144,1135,-2426,205,1093,211,277,1
113372496,16910,-5725,-8795,0.936059536,0.351841648,0.087155743,-0.987959866,0.154710386,1686,-8778,-23144,551,-2587,238,1099,209,234,1
113392496,18653,-5811,-8259,0.933580426,0.35836795,0.087155743,-0.979924705,0.199367934,5450,-8914,-23476,108,-2414,204,1083,195,132,1
113412496,19682,-6975,-9089,0.936059536,0.351841648,0.085416923,-0.97154912,0.236838146,7810,-11342,-26424,-405,-2224,247,1071,203,70,1
113432496,15730,-5525,-9205,0.940288127,0.34037955,0.080198924,-0.963162567,0.268919821,204,-8626,-27774,-707,-2044,311,1041,183,38,1
113452496,12018,-2769,-8753,0.946085359,0.323917418,0.069756474,-0.956304756,0.292371705,-6980,-3368,-27702,-920,-1791,312,1003,169,-41,1
113472496,9147,-2781,-8469,0.951594404,0.307356618,0.059306374,-0.952661481,0.304033061,-12580,-3776,-27622,-971,-1456,333,1015,175,-74,1
113492496,7194,-2288,-7981,0.956813584,0.290702194,0.047106451,-0.951594404,0.307356618,-16452,-3170,-26788,-990,-1091,368,985,135,-100,1
113512500,6512,-2570,-8676,0.96174131,0.273959219,0.038387809,-0.953716951,0.3007058,-17894,-4044,-27976,-909,-702,306,969,131,-135,1
113532500,5766,-1237,-9693,0.965925826,0.258819045,0.027921639,-0.960293686,0.278991106,-19594,-1622,-29388,-816,-193,297,955,115,-142,1
113552500,5089,-1286,-8617,0.96944535,0.245307386,0.02094242,-0.966823389,0.255445758,-21200,-1978,-26434,-735,-30,212,959,99,-139,1
113572500,3002,-4506,-6062,0.97236992,0.233445364,0.031410759,-0.97113428,0.238533458,-25566,-8484,-20622,-563,-158,50,965,85,-153,1
113592500,5805,-6179,-4633,0.976296007,0.216439614,0.045362988,-0.972775878,0.231747903,-20042,-11436,-17404,-786,-424,-66,939,59,-157,1
113612500,7702,-8919,-2495,0.981292664,0.192521967,0.0662739,-0.969872015,0.243615012,-16192,-16320,-13268,-1040,-811,-291,945,55,-126,1
113632500,9175,-6596,48,0.985109326,0.1719291,0.087155743,-0.964095404,0.265556117,-13040,-10810,-8738,-818,-1040,-489,929,83,-183,1
113652500,9709,375,2507,0.987959866,0.154710386,0.081938509,-0.959805292,0.280666709,-11840,3558,-4152,-687,-579,-135,939,71,-188,1
113672500,11440,3708,2827,0.989776231,0.142628934,0.068015291,-0.962217994,0.272280247,-8478,10030,-3204,-535,472,-91,925,51,-197,1
113692500,13550,5624,4316,0.991444861,0.130526192,0.055821505,-0.96814764,0.250380004,-4490,13512,524,-491,1025,-175,947,59,-197,1
113712500,15940,6205,7516,0.992114701,0.125333234,0.04884977,-0.973178873,0.230049737,78,14404,7734,-174,1173,-263,955,51,-163,1
113732500,15864,4888,7307,0.993571856,0.113203214,0.043619387,-0.975149354,0.221548498,-154,11532,7620,-512,718,-321,971,59,-131,1
113752500,16832,3189,4052,0.995396198,0.095845753,0.043619387,-0.981292664,0.192521967,1612,8042,1898,-633,1329,-439,981,69,-123,1
113772500,17444,2017,2114,0.996194698,0.087155743,0.04884977,-0.988228381,0.152985836,2628,5808,-738,-346,1689,-516,995,77,-93,1
113792500,20097,4787,5693,0.996917334,0.078459096,0.047106451,-0.991671162,0.128795597,7820,11420,7332,-327,1186,-375,1015,85,-51,1
113812500,24157,-2786,-4170,0.996194698,0.087155743,0.064532308,-0.996041065,0.088894297,15848,-3488,-11452,414,1382,-621,1019,85,-21,1
113832500,27373,1869,-1285,0.994880709,0.101056297,0.074978727,-0.998341817,0.057564027,22226,6344,-4492,531,1186,-593,1031,127,44,1
113852500,24854,4361,9025,0.993372766,0.11493715,0.081938509,-0.998719357,0.05059294,17198,11654,16704,614,608,-594,1043,137,38,1
113872500,22886,-1615,6507,0.993960955,0.109734311,0.095845753,-0.99912283,0.041875654,13280,-20,11898,-145,719,-688,1051,159,79,1
113892504,22531,3414,31,0.993767919,0.111468932,0.101056297,-0.999902524,0.01396218,12590,10390,-340,31,1227,-511,1061,169,66,1
113912504,16600,228,-356,0.991894443,0.127064609,0.101056297,-0.999998477,-0.001745328,720,3886,-652,626,561,-185,1057,189,118,1
113932504,17307,-3113,417,0.989525789,0.144356201,0.09931975,-0.999998477,-0.001745328,2112,-3010,932,678,12,80,1059,189,103,1
113952504,16801,-10093,-202,0.987136265,0.159881188,0.109734311,-0.999961923,-0.008726535,1106,-16948,-78,591,316,17,1067,205,92,1
113972504,14270,-10958,1471,0.985996037,0.166768747,0.127064609,-0.999902524,-0.01396218,-3904,-18230,3500,262,315,-98,1069,197,95,1
113992504,15035,-8551,-1471,0.987136265,0.159881188,0.139173101,-0.999815712,-0.019197442,-2306,-12846,-2354,-315,246,-142,1065,219,108,1
114012504,14054,-5483,18,0.988228381,0.152985836,0.149535343,-0.999657325,-0.026176948,-4194,-6242,944,-304,420,-177,1047,223,102,1
114032504,13570,-1748,1704,0.989272333,0.146083029,0.154710386,-0.999610115,-0.027921639,-5090,1648,4464,-303,325,-294,1047,209,113,1
114052504,15190,1689,2167,0.990509463,0.137444546,0.152985836,-0.999657325,-0.026176948,-1834,8654,5388,-304,285,-232,1061,233,120,1
114072504,13997,4638,1043,0.99121554,0.13225639,0.140901232,-0.99950656,-0.031410759,-4244,14368,3212,-219,387,-120,1065,217,134,1
114092504,13097,4727,344,0.99074784,0.135715572,0.127064609,-0.999328394,-0.036643709,-6102,14098,1950,78,340,-33,1055,231,178,1
114112504,12394,4514,528,0.988756381,0.149535343,0.111468932,-0.999194395,-0.040131793,-7576,13166,2440,539,206,11,1047,237,147,1
114132504,13223,2725,2855,0.98450318,0.175366726,0.102792537,-0.99950656,-0.031410759,-5982,9132,7018,1076,-76,-66,1067,227,123,1
114152504,15084,-1706,2520,0.976672278,0.214735327,0.106264071,-0.999780683,-0.02094242,-2304,80,5926,1623,-361,-221,1039,251,127,1
114172504,13571,-5462,-1914,0.965472631,0.260504509,0.116670737,-0.99992537,-0.012217001,-5340,-7344,-3516,1844,-637,-184,1029,277,104,1
114192504,11662,-5073,-1198,0.954240329,0.299040792,0.125333234,-0.999986292,-0.005235964,-9122,-6290,-2250,1605,-476,-91,1009,273,78,1
114212504,13233,-4744,1301,0.943800952,0.330514393,0.128795597,-0.999993908,0.003490651,-5950,-5448,2616,1284,-370,53,997,285,85,1
114232504,16478,-4775,3445,0.933580426,0.35836795,0.127064609,-0.999876632,0.015707317,540,-5516,6588,1208,-380,226,1001,277,58,1
114252504,16694,-4879,3788,0.924546034,0.381070376,0.121869343,-0.999610115,0.027921639,960,-5866,6894,965,-314,333,987,277,48,1
114272504,17335,-770,12050,0.917754626,0.397147891,0.107999356,-0.998440764,0.055821505,2226,2084,22834,724,-524,501,987,269,31,1
114292508,28946,-1921,15403,0.909236109,0.416280792,0.088894297,-0.996345296,0.085416923,25436,-856,28470,811,-714,737,975,271,-3,1
114312508,32764,-2169,14727,0.903335293,0.428935133,0.071497444,-0.992546152,0.121869343,-32402,-1986,25816,525,-1129,768,965,277,-44,1
114332508,32764,401,7207,0.89648643,0.443071191,0.05059294,-0.986855716,0.161603821,-32236,2560,9216,488,-1570,762,949,233,-74,1
114352508,32764,-3745,-5516,0.888617233,0.458649554,0.045362988,-0.980955155,0.194234351,-31988,-6044,-17690,618,-1742,387,903,225,-113,1
114372508,32144,-11188,-12822,0.879648573,0.475624209,0.052335956,-0.97113428,0.238533458,32668,-20908,31606,681,-2498,175,917,223,-155,1
114392508,23999,-6234,-22999,0.882947593,0.469471563,0.04884977,-0.957822495,0.28736052,16904,-10988,9412,-449,-2981,157,835,223,-239,1
114412508,9428,-4996,-7857,0.886203579,0.463296035,0.054078813,-0.943222658,0.332161132,-11750,-8544,-27236,-352,-2781,92,817,211,-267,1
114432508,12899,-8543,-10664,0.887010833,0.461748613,0.06104854,-0.935444031,0.353474844,-4520,-15452,32008,-260,-1769,66,755,205,-324,1
114452508,8270,-3259,-13233,0.89179753,0.452434709,0.064532308,-0.932323801,0.36162457,-13578,-4544,26444,-516,-1411,-141,729,197,-366,1
114472508,3620,-464,-13730,0.898027576,0.43993917,0.06279052,-0.931691228,0.36325123,-22846,1092,25382,-657,-1130,-113,717,191,-380,1
114492508,-690,1489,-12293,0.905568799,0.424199423,0.04884977,-0.935444031,0.353474844,-31632,4702,28636,-896,-543,63,695,167,-362,1
114512508,-2944,908,-10892,0.917060074,0.398749069,0.031410759,-0.948323655,0.317304656,28908,2906,32646,-1335,655,191,695,141,-397,1
114532508,-1966,-2582,-8430,0.924546034,0.381070376,0.027921639,-0.966376079,0.257132793,30204,-4502,-25978,-933,1690,157,713,109,-354,1
114552508,-1532,-5288,-5211,0.930417568,0.366501227,0.040131793,-0.977415894,0.211324796,30654,-9928,-17908,-748,1175,156,717,119,-322,1
114572508,6413,-5794,-1112,0.936672189,0.350207381,0.047106451,-0.980271175,0.19765734,-19154,-10640,-8924,-849,336,261,729,89,-339,1
114592508,16925,-5528,7735,0.944948912,0.327217899,0.045362988,-0.973578903,0.22835087,1992,-9792,8228,-1058,-922,121,723,57,-315,1
114612508,22936,-340,8219,0.953190668,0.302369891,0.040131793,-0.96814764,0.250380004,14210,678,8406,-1081,-667,-112,705,51,-315,1
114632508,22378,7390,9634,0.96174131,0.273959219,0.026176948,-0.968583161,0.248689887,13074,15970,11292,-1239,291,-169,719,43,-343,1
114652508,19569,11567,6406,0.96770917,0.252069358,0.019197442,-0.976296007,0.216439614,7206,24262,5878,-868,1587,-557,729,-11,-328,1
114672512,16349,10329,8713,0.96814764,0.250380004,0.02094242,-0.983885038,0.178802215,494,21864,11914,88,1956,-746,757,-17,-287,1
114692512,15222,4261,6903,0.965925826,0.258819045,0.031410759,-0.989525789,0.144356201,-1924,9842,9410,441,1772,-740,783,39,-246,1
114712512,20301,9732,15680,0.970295726,0.241921896,0.033155178,-0.992114701,0.125333234,8148,20986,27788,-640,1453,-709,819,41,-228,1
114732512,20089,-1257,-8864,0.969015731,0.246999013,0.057564027,-0.99897057,0.045362988,7584,-626,-19590,243,2730,-944,823,47,-165,1
114752512,26927,-3633,-4422,0.959313975,0.282341457,0.080198924,-0.999993908,0.003490651,21264,-4638,-9058,1418,1472,-920,859,79,-134,1
114772512,17638,-1819,6583,0.955278362,0.29570805,0.09063258,-0.999876632,0.015707317,2748,-660,13006,599,-85,-421,867,93,-135,1
114792512,26390,-618,4514,0.960293686,0.278991106,0.101056297,-0.999993908,-0.003490651,20294,2194,9324,-699,1095,-593,851,105,-107,1
114812512,23220,1478,5273,0.958819735,0.284015345,0.109734311,-0.99970149,-0.024432178,14014,6764,11616,165,1215,-613,879,117,-93,1
114832512,22602,901,12420,0.955278362,0.29570805,0.111468932,-0.999945169,-0.010471784,12782,5636,25708,582,49,-302,881,129,-82,1
114852512,26639,6601,9795,0.957822495,0.28736052,0.0975829,-0.999998477,0.001745328,20816,16764,19914,-372,25,139,887,145,-98,1
114872512,18069,-2346,-1479,0.953190668,0.302369891,0.09931975,-0.99950656,-0.031410759,3656,-1402,-1912,644,1294,-106,889,133,-51,1
114892512,10043,-9572,-6180,0.940288127,0.34037955,0.121869343,-0.99853667,-0.054078813,-12360,-15630,-10900,1521,388,-376,893,143,-36,1
114912512,9663,-10712,-6867,0.930417568,0.366501227,0.137444546,-0.997915618,-0.064532308,-13042,-17440,-11982,1003,-138,-38,895,149,-32,1
114932512,14950,-5633,-3298,0.924546034,0.381070376,0.140901232,-0.997801468,-0.0662739,-2390,-6836,-4574,590,-157,55,887,151,-19,1
114952512,16308,-1885,-731,0.923210217,0.384295323,0.140901232,-0.997801468,-0.0662739,376,914,694,150,40,-119,883,163,-26,1
114972512,14991,558,4659,0.923210217,0.384295323,0.140901232,-0.998239828,-0.059306374,-2232,5898,11632,-10,262,-182,887,151,-43,1
114992512,13162,1069,2126,0.924546034,0.381070376,0.135715572,-0.998239828,-0.059306374,-5918,6796,6428,-148,340,-86,881,155,-48,1
115012512,12828,41,841,0.923210217,0.384295323,0.130526192,-0.998134798,-0.06104854,-6628,4496,3790,151,215,-8,873,165,-27,1
115032512,11834,-1227,207,0.917060074,0.398749069,0.127064609,-0.998026728,-0.06279052,-8646,1734,2546,642,153,29,875,167,-34,1
115052516,12595,-1304,3562,0.908508178,0.417867074,0.123601477,-0.998629535,-0.052335956,-7142,1514,9180,871,-56,-48,875,171,-10,1
115072516,15808,-3005,2474,0.89571176,0.444635179,0.127064609,-0.999194395,-0.040131793,-754,-1896,6486,1188,-352,-125,865,183,-59,1
115092516,14618,-3382,-29,0.880477354,0.474088209,0.130526192,-0.99950656,-0.031410759,-3140,-2562,1036,1316,-433,-132,855,195,-51,1
115112516,14177,-3739,-1834,0.865151421,0.501510737,0.13225639,-0.99955986,-0.029666244,-4022,-3244,-2750,1192,-282,-8,853,213,-51,1
115132516,13840,-430,1524,0.851726934,0.523985906,0.123601477,-0.99970149,-0.024432178,-4702,3310,3994,1069,-162,152,849,227,-67,1
115152516,17003,-57,6280,0.836764313,0.547563223,0.109734311,-0.999986292,-0.005235964,1556,3616,13120,1209,-407,362,853,219,-66,1
115172516,21346,-1308,10397,0.819152044,0.573576436,0.095845753,-0.999742609,0.022687334,10178,584,20534,1249,-664,490,839,209,-75,1
115192516,30443,-8878,12301,0.804893797,0.593418887,0.087155743,-0.998806137,0.04884977,28348,-15052,23370,967,-724,561,815,211,-83,1
115212516,32764,-2256,9699,0.800731371,0.599023599,0.071497444,-0.996637387,0.081938509,-32508,-2108,16992,273,-1037,570,789,203,-71,1
115232516,32764,-1998,1734,0.79863551,0.601815023,0.054078813,-0.992965508,0.118403968,-32412,-2194,-404,31,-1530,706,789,201,-117,1
115252516,32764,-5616,-8615,0.795473481,0.6059884,0.047106451,-0.989015863,0.147809411,-32250,-9766,-22424,86,-1677,401,773,193,-135,1
115272516,29271,-6914,-14713,0.795473481,0.6059884,0.043619387,-0.982287251,0.187381315,26542,-12514,29444,-88,-2289,284,761,187,-184,1
115292516,20971,-6320,-12621,0.799684658,0.600420225,0.040131793,-0.97154912,0.236838146,10310,-11490,31972,-407,-2770,293,721,171,-200,1
115312516,18008,-9909,-12762,0.803856861,0.594822787,0.045362988,-0.962691746,0.270600446,4708,-18644,30566,-393,-2181,100,711,169,-230,1
115332516,16415,-3327,-8704,0.814115518,0.580702956,0.043619387,-0.955793015,0.294040325,1770,-5330,-27602,-852,-1720,-8,655,157,-285,1
115352516,11320,-1536,-10482,0.822144041,0.569279523,0.041875654,-0.949972052,0.312334919,-8160,-1750,-31930,-664,-1766,-70,623,149,-326,1
115372516,4610,901,-10697,0.826098294,0.563526049,0.040131793,-0.947210278,0.320612991,-21430,3222,-32750,-313,-1478,-170,627,143,-313,1
115392516,-1,446,-10815,0.827080574,0.562083378,0.040131793,-0.948323655,0.317304656,-30700,2264,32706,-148,-895,-125,595,151,-353,1
115412516,-656,-3294,-10804,0.831954122,0.554844427,0.045362988,-0.954240329,0.299040792,-32236,-5384,-32156,-414,-173,12,581,133,-373,1
115432520,311,-2573,-10673,0.842452397,0.538770785,0.041875654,-0.965925826,0.258819045,-30708,-4002,-30622,-933,692,139,573,133,-334,1
115452520,3797,-1241,-5974,0.85536426,0.518027009,0.033155178,-0.982612797,0.185666615,-24364,-1544,-18822,-1140,2030,251,621,91,-305,1
115472520,4479,-3985,-1294,0.866896749,0.49848774,0.043619387,-0.987413807,0.158158067,-23274,-7108,-8010,-1008,832,75,623,87,-311,1
115492520,9473,-5841,-66,0.874619707,0.48480962,0.05059294,-0.988493887,0.15126082,-13322,-10490,-5172,-713,187,192,637,63,-274,1
115512520,18921,-7463,7578,0.887010833,0.461748613,0.05059294,-0.981627183,0.190808995,5736,-13534,9152,-1142,-1277,114,635,53,-285,1
115532520,21755,-3554,12142,0.89648643,0.443071191,0.05059294,-0.970295726,0.241921896,11746,-5512,16684,-869,-1712,-112,585,43,-311,1
115552520,17438,7916,9133,0.907044014,0.421035813,0.040131793,-0.970295726,0.241921896,3138,17558,10620,-985,379,-327,577,29,-319,1
115572520,16276,7518,7691,0.913545458,0.406736643,0.047106451,-0.977415894,0.211324796,606,17014,8702,-413,1570,-966,599,7,-300,1
115592520,14761,10554,9525,0.911403277,0.411514359,0.05059294,-0.983571471,0.180519145,-2622,23330,13510,339,1737,-809,641,39,-259,1
115612520,14950,6705,10026,0.909236109,0.416280792,0.04884977,-0.985703469,0.16848938,-2316,15408,14934,251,995,-403,651,43,-257,1
115632520,16511,3112,8800,0.914253955,0.405141587,0.05059294,-0.987959866,0.154710386,736,8104,12884,-424,1056,-443,683,69,-226,1
115652520,19129,5319,9482,0.923210217,0.384295323,0.04884977,-0.991444861,0.130526192,5866,12570,15042,-864,1489,-482,695,51,-219,1
115672520,20829,-805,-2681,0.927836254,0.372987783,0.0662739,-0.996778878,0.080198924,9164,608,-8138,-424,1898,-797,721,71,-152,1
115692520,24700,15,-5990,0.922538089,0.385906042,0.083677843,-0.999657325,0.026176948,16860,2902,-13070,517,1860,-859,731,59,-154,1
115712520,20819,1269,151,0.918446381,0.395545503,0.095845753,-1,6.12E-17,9134,5840,354,398,1134,-679,767,77,-100,1
115732520,21886,-487,7182,0.923210217,0.384295323,0.104528463,-0.999993908,-0.003490651,11304,2544,14810,-438,617,-500,779,101,-85,1
115752520,21428,290,1849,0.923210217,0.384295323,0.116670737,-0.99955986,-0.029666244,10450,4550,4804,-39,1261,-703,775,131,-85,1
115772520,16720,-1203,1262,0.915662593,0.401947777,0.127064609,-0.99853667,-0.054078813,1102,1814,4414,735,1086,-551,811,149,-48,1
115792520,27985,7980,14536,0.918446381,0.395545503,0.106264071,-0.999986292,-0.005235964,23536,19792,29750,-269,-1265,384,809,147,-30,1
115812524,24870,4472,3823,0.918446381,0.395545503,0.0975829,-0.99955986,-0.029666244,17286,12446,8828,40,1240,-44,783,139,-56,1
115832524,12833,-7700,-620,0.903335293,0.428935133,0.118403968,-0.99853667,-0.054078813,-6766,-11918,548,1435,877,-417,821,159,-12,1
115852524,11594,-9957,-11478,0.892585818,0.450877541,0.13225639,-0.996778878,-0.080198924,-9158,-15946,-20872,833,348,-206,809,165,-4,1
115872524,12608,-9237,-6796,0.880477354,0.474088209,0.142628934,-0.995884399,-0.09063258,-7058,-14200,-10962,973,-63,9,815,155,18,1
115892524,16925,-5675,-2288,0.870355696,0.49242356,0.146083029,-0.996345296,-0.085416923,1644,-6728,-1802,854,-277,-44,805,163,-15,1
115912524,16316,-3821,-2024,0.866896749,0.49848774,0.147809411,-0.996492859,-0.083677843,446,-2844,-1362,252,-140,-79,787,189,23,1
115932524,15387,-3272,-2494,0.866896749,0.49848774,0.15126082,-0.995724698,-0.092370587,-1364,-1622,-2036,-62,357,-98,805,179,21,1
115952524,13325,-2729,-2061,0.867765453,0.496973961,0.15126082,-0.994702817,-0.102792537,-5446,-490,-780,-121,481,-26,811,181,5,1
115972524,12146,-836,1353,0.870355696,0.49242356,0.147809411,-0.994702817,-0.102792537,-7786,3262,6258,-159,326,30,811,177,47,1
115992524,14702,-240,3929,0.872922077,0.487859659,0.140901232,-0.995561965,-0.094108313,-2710,4300,11288,-153,187,67,799,181,34,1
116012524,14012,3111,2332,0.870355696,0.49242356,0.130526192,-0.995884399,-0.09063258,-4138,10852,7854,222,149,-26,809,199,54,1
116032524,13410,739,2204,0.859852272,0.510542918,0.125333234,-0.996492859,-0.083677843,-5410,5784,7392,814,-13,-127,791,189,49,1
116052524,13908,-2457,1882,0.843391446,0.537299608,0.127064609,-0.997185134,-0.074978727,-4466,-744,6426,1298,-223,-206,793,199,52,1
116072524,14482,-3129,2495,0.824126189,0.566406237,0.130526192,-0.998026728,-0.06279052,-3342,-2050,7308,1376,-300,-143,799,201,43,1
116092524,13483,-3732,1296,0.803856861,0.594822787,0.13225639,-0.998629535,-0.052335956,-5370,-3242,4474,1396,-393,-50,799,221,43,1
116112524,12794,-5346,1453,0.782608157,0.622514637,0.135715572,-0.99912283,-0.041875654,-6764,-6448,4454,1451,-377,11,781,241,33,1
116132524,15317,-5310,2604,0.763796029,0.645457688,0.135715572,-0.99950656,-0.031410759,-1722,-6316,6466,1211,-288,141,787,249,12,1
116152524,17565,-3842,6137,0.751264134,0.660001668,0.128795597,-0.999902524,-0.01396218,2746,-3510,13108,805,-343,327,789,245,4,1
116172524,18390,-2312,6997,0.739631095,0.673012514,0.11493715,-0.999945169,0.010471784,4332,-854,14038,698,-604,551,775,251,34,1
116192524,23206,-4604,9575,0.732542899,0.680720869,0.101056297,-0.999194395,0.040131793,13918,-5972,18198,473,-812,642,777,233,-9,1
116212528,29383,-4126,15879,0.727772758,0.685818353,0.085416923,-0.997052752,0.076719028,26278,-5470,29704,237,-921,642,765,233,-54,1
116232528,32764,-3309,8478,0.728968627,0.684547106,0.068015291,-0.992965508,0.118403968,-32406,-4362,13242,-122,-1522,659,739,207,-53,1
116252528,32764,-2173,-2371,0.721760228,0.692143174,0.055821505,-0.988228381,0.152985836,-32238,-2516,-9890,257,-1592,563,737,199,-96,1
116272528,32764,-4161,-10450,0.710799474,0.703394703,0.054078813,-0.983571471,0.180519145,-32046,-6612,-27220,602,-1725,229,735,193,-108,1
116292528,24375,-6143,-14246,0.708339838,0.705871571,0.05059294,-0.973975967,0.226651307,17048,-10756,29080,-49,-2620,274,701,185,-158,1
116312528,17166,-2773,-10105,0.710799474,0.703394703,0.052335956,-0.964095404,0.265556117,2996,-3908,-29498,-192,-2440,-7,673,173,-185,1
116332528,14432,-1461,-5239,0.71447268,0.699663341,0.055821505,-0.956813584,0.290702194,-2234,-1126,-20488,-252,-1710,-189,629,209,-222,1
116352528,13187,-2490,-9773,0.7193398,0.69465837,0.057564027,-0.951594404,0.307356618,-4476,-3150,-30284,-319,-1594,-124,595,175,-251,1
116372528,6419,-68,-10385,0.722967146,0.690882411,0.057564027,-0.948876012,0.315649037,-17866,1804,-31902,-299,-1406,-131,607,183,-254,1
116392528,1936,-429,-10359,0.726574671,0.687087511,0.057564027,-0.948876012,0.315649037,-26828,1032,-31856,-315,-1082,-86,581,177,-268,1
116412528,-376,-2054,-10939,0.731353702,0.68199836,0.06104854,-0.952661481,0.304033061,-31584,-2302,-32624,-423,-557,-9,545,173,-299,1
116432528,-655,-3510,-12105,0.740804596,0.671720589,0.06104854,-0.96174131,0.273959219,-32468,-5290,31576,-739,306,87,553,167,-286,1
116452528,926,-2182,-10803,0.760405966,0.649448048,0.052335956,-0.978867389,0.204496052,-29932,-2798,-29150,-1362,1872,185,555,151,-268,1
116472528,3189,-4295,-6875,0.777145961,0.629320391,0.055821505,-0.990023658,0.140901232,-25842,-7170,-19124,-1193,1708,167,593,117,-248,1
116492528,4546,-9845,-3584,0.789084085,0.6142852,0.080198924,-0.992114701,0.125333234,-23236,-17824,-11576,-832,332,-135,611,115,-211,1
116512528,13997,-8886,-103,0.809016994,0.587785252,0.095845753,-0.990268069,0.139173101,-4248,-15042,-4826,-1353,-545,-296,605,115,-215,1
116532528,19740,-4288,9873,0.827080574,0.562083378,0.09063258,-0.97957525,0.201077921,7508,-5652,13514,-1331,-2027,59,589,81,-248,1
116552528,20309,6093,12672,0.848971688,0.528438335,0.074978727,-0.975149354,0.221548498,8776,14990,18480,-1612,-270,-90,587,83,-271,1
116572528,17420,13920,7970,0.875464527,0.483282383,0.054078813,-0.982612797,0.185666615,2730,30262,10164,-2151,1970,-379,589,53,-256,1
116592532,14592,17685,10976,0.884580975,0.46638664,0.040131793,-0.989272333,0.146083029,-3150,-28122,17558,-675,2101,-451,611,39,-206,1
116612532,17197,12056,12337,0.887815385,0.460199785,0.029666244,-0.9909832,0.133986185,1994,25634,20710,-271,1054,-304,659,21,-191,1
116632532,14656,6495,5223,0.893371388,0.449318999,0.029666244,-0.995561965,0.094108313,-3226,14414,7650,-446,2012,-606,689,39,-154,1
116652532,18619,5319,5410,0.894154237,0.447759088,0.040131793,-0.998239828,0.059306374,4642,12310,9144,-47,1742,-859,703,51,-109,1
116672532,26416,-3593,-4827,0.882126866,0.471011881,0.068015291,-0.999902524,0.01396218,20232,-4970,-10244,1057,1608,-1055,713,63,-74,1
116692532,26980,1921,-1874,0.865151421,0.501510737,0.087155743,-0.999876632,-0.015707317,21428,6898,-3222,1378,1097,-1011,733,85,-90,1
116712532,18053,2004,6282,0.85536426,0.518027009,0.0975829,-0.999815712,-0.019197442,3632,7406,13542,787,495,-688,747,119,-39,1
116732532,25960,588,851,0.852640164,0.522498565,0.111468932,-0.99912283,-0.041875654,19514,4990,3160,127,1067,-809,771,143,-48,1
116752532,21985,-5196,4418,0.844327926,0.535826795,0.123601477,-0.99897057,-0.045362988,11600,-6428,10588,625,445,-430,769,151,-44,1
116772532,18311,-5830,3142,0.839619865,0.54317445,0.13225639,-0.998629535,-0.052335956,4294,-7470,8190,380,497,-218,747,143,-33,1
116792532,17318,-4770,1832,0.836764313,0.547563223,0.140901232,-0.998026728,-0.06279052,2372,-5036,5890,200,690,-237,769,177,-13,1
116812532,19158,-1224,-141,0.836764313,0.547563223,0.139173101,-0.997801468,-0.0662739,6074,2194,1948,-72,277,-59,765,179,-2,1
116832532,20933,-5313,-1668,0.836764313,0.547563223,0.140901232,-0.997440783,-0.071497444,9616,-6086,-990,18,273,-8,755,167,3,1
116852532,16376,-3851,-440,0.830984469,0.556295616,0.144356201,-0.996637387,-0.081938509,554,-3016,1858,408,479,-134,785,179,12,1
116872532,13984,-3960,-3760,0.823136369,0.567843745,0.15126082,-0.995396198,-0.095845753,-4180,-3046,-4538,454,364,-222,763,177,45,1
116892532,13467,-2784,-3013,0.81613759,0.577857624,0.154710386,-0.994337944,-0.106264071,-5144,-496,-2666,474,262,-204,775,175,21,1
116912532,14353,-4442,-2756,0.809016994,0.587785252,0.163325962,-0.993571856,-0.113203214,-3318,-3644,-1928,424,138,-254,759,199,58,1
116932532,12040,-2660,494,0.803856861,0.594822787,0.165047606,-0.993571856,-0.113203214,-7892,66,4800,289,211,-112,769,205,38,1
116952532,11633,-3427,2160,0.803856861,0.594822787,0.166768747,-0.994702817,-0.102792537,-8726,-1448,7950,74,-5,-12,765,195,41,1
116972536,13549,-1960,4044,0.804893797,0.593418887,0.166768747,-0.99505557,-0.09931975,-4914,1552,11434,-90,54,23,753,193,55,1
116992536,14857,-2447,761,0.803856861,0.594822787,0.163325962,-0.995396198,-0.095845753,-2326,482,4752,109,42,59,755,215,63,1
117012536,14642,-459,889,0.79863551,0.601815023,0.158158067,-0.995884399,-0.09063258,-2778,4418,4870,389,-5,-35,769,197,29,1
117032536,14239,1743,1680,0.788010754,0.615661475,0.15126082,-0.996778878,-0.080198924,-3636,8716,6146,696,-266,-131,763,203,45,1
117052536,13025,1965,1383,0.769399555,0.638767818,0.140901232,-0.997915618,-0.064532308,-6160,8856,5026,1172,-556,-82,769,217,31,1
117072536,13704,-3007,-849,0.743144825,0.669130606,0.140901232,-0.998341817,-0.057564027,-4880,-1432,204,1600,-422,-66,753,225,-3,1
117092536,14527,-6678,-1229,0.715692734,0.698415285,0.147809411,-0.998629535,-0.052335956,-3244,-8780,-766,1556,-429,-41,729,245,21,1
117112536,16089,-6311,1696,0.69465837,0.7193398,0.149535343,-0.999048222,-0.043619387,-108,-7932,4946,1186,-323,86,737,249,-14,1
117132536,17772,-2983,4467,0.683273774,0.730162277,0.139173101,-0.999610115,-0.027921639,3228,-1384,10126,688,-321,334,733,253,-36,1
117152536,21245,-2683,12170,0.673012514,0.739631095,0.127064609,-0.999998477,-0.001745328,10106,-1164,24940,613,-438,445,717,245,-35,1
117172536,27155,-3298,12432,0.665230355,0.746638182,0.111468932,-0.99970149,0.024432178,21854,-2910,24494,449,-599,596,709,247,-36,1
117192536,32584,341,11240,0.662620048,0.748955721,0.092370587,-0.998239828,0.059306374,32690,3846,20860,171,-1033,624,709,229,-56,1
117212536,32764,3773,8831,0.660001668,0.751264134,0.068015291,-0.99505557,0.09931975,-32458,9988,14608,57,-1413,740,707,221,-64,1
117232536,32764,-2031,-2608,0.64678978,0.76266833,0.055821505,-0.991444861,0.130526192,-32344,-2208,-9628,604,-1479,545,681,209,-92,1
117252536,28351,-5535,-9488,0.633380873,0.77384021,0.054078813,-0.985407898,0.170209499,24590,-9416,-24940,578,-2191,313,667,201,-125,1
117272536,23663,-12012,-14473,0.627963058,0.778243149,0.059306374,-0.975916762,0.218143241,15548,-22412,28942,209,-2672,225,643,205,-146,1
117292536,19866,-12230,-10278,0.632029303,0.774944489,0.069756474,-0.967267753,0.253757945,8282,-22554,-29368,-306,-2173,-48,593,211,-206,1
117312536,17183,-5259,-5902,0.650774217,0.759271307,0.069756474,-0.958819735,0.284015345,3206,-8392,-21552,-1124,-1791,-98,579,207,-220,1
117332536,16808,425,-9849,0.670426619,0.741975841,0.059306374,-0.950515732,0.31067643,2792,2882,-30490,-1161,-1906,-5,551,171,-262,1
117352540,6722,1796,-9727,0.68199836,0.731353702,0.047106451,-0.943800952,0.330514393,-17102,5330,-31066,-752,-1878,12,551,169,-265,1
117372540,1912,918,-9863,0.688354576,0.725374371,0.038387809,-0.941470545,0.337095258,-26634,3180,-31596,-531,-1377,86,499,159,-303,1
117392540,-53,-1505,-11300,0.692143174,0.721760228,0.034899497,-0.944948912,0.327217899,-30710,-2000,31450,-367,-564,167,477,147,-306,1
117412540,687,-3559,-11775,0.702153053,0.712026046,0.029666244,-0.955278362,0.29570805,-29580,-6390,31482,-787,271,246,477,129,-345,1
117432540,1026,-3162,-11050,0.718126298,0.695912797,0.024432178,-0.971961001,0.235142113,-29518,-5750,-30608,-1082,1558,218,501,117,-316,1
117452540,3348,-6449,-7728,0.738455341,0.674302388,0.033155178,-0.985703469,0.16848938,-25406,-12362,-21670,-1297,1870,67,519,111,-277,1
117472540,6069,-7736,-4038,0.751264134,0.660001668,0.05059294,-0.989015863,0.147809411,-20102,-14482,-13340,-865,379,-26,543,85,-286,1
117492540,13234,-8157,1387,0.774944489,0.632029303,0.059306374,-0.986855716,0.161603821,-5748,-14778,-2532,-1477,-486,-100,553,59,-245,1
117512540,19102,-5800,9295,0.800731371,0.599023599,0.059306374,-0.977045574,0.213030386,6242,-9818,11886,-1778,-1689,-91,525,39,-257,1
117532540,16921,3221,8476,0.823136369,0.567843745,0.04884977,-0.97236992,0.233445364,2038,8284,9600,-1546,-379,-199,517,7,-265,1
117552540,17303,9226,5794,0.841510782,0.54024032,0.034899497,-0.977783237,0.209618563,2654,20122,4858,-1316,1193,-380,517,-9,-260,1
117572540,18236,13631,9193,0.840566603,0.54170821,0.034899497,-0.985703469,0.16848938,4242,28992,13164,200,2069,-675,531,-7,-218,1
117592540,17123,12786,12966,0.831954122,0.554844427,0.033155178,-0.989272333,0.146083029,1890,27228,21594,697,1449,-565,565,15,-199,1
117612540,16913,6335,11688,0.827080574,0.562083378,0.034899497,-0.990023658,0.140901232,1442,14142,19240,371,812,-423,583,7,-178,1
117632540,17618,4827,9417,0.829037573,0.559192903,0.031410759,-0.990268069,0.139173101,2860,11000,14644,-104,525,-296,611,39,-191,1
117652540,15820,7912,4022,0.832921241,0.553391549,0.029666244,-0.99505557,0.09931975,-870,17292,4990,-255,1878,-548,611,31,-152,1
117672540,18364,3504,7317,0.832921241,0.553391549,0.040131793,-0.998026728,0.06279052,4126,8582,12938,43,1908,-740,643,47,-130,1
117692540,26963,-7643,-9788,0.812083527,0.583541211,0.069756474,-0.999998477,0.001745328,21300,-13150,-19872,1512,2074,-950,647,59,-128,1
117712540,20039,-4688,355,0.79863551,0.601815023,0.09063258,-0.999780683,-0.02094242,7538,-6518,1452,847,903,-721,689,83,-79,1
117732544,20380,-3099,5115,0.799684658,0.600420225,0.107999356,-0.999450216,-0.033155178,8322,-2644,11620,-66,930,-741,673,101,-67,1
117752544,20820,-6796,-1241,0.802817475,0.596224875,0.13225639,-0.998026728,-0.06279052,9308,-9428,-416,-257,1264,-742,695,117,-39,1
117772544,21771,-2463,-598,0.803856861,0.594822787,0.139173101,-0.996637387,-0.081938509,11330,-304,1504,-144,890,-390,723,109,-13,1
117792544,28826,4534,10633,0.814115518,0.580702956,0.127064609,-0.99853667,-0.054078813,25374,13506,23436,-611,-500,223,723,121,-8,1
117812544,25771,9688,5631,0.824126189,0.566406237,0.113203214,-0.99756405,-0.069756474,19250,23544,13806,-721,1093,24,717,103,27,1
117832544,13216,-4867,-1107,0.807989884,0.589196357,0.127064609,-0.99505557,-0.09931975,-5826,-5762,1034,1076,1125,-441,727,119,34,1
117852544,10086,-10548,-5944,0.788010754,0.615661475,0.147809411,-0.992757342,-0.120136839,-11988,-16748,-8252,1229,410,-385,735,139,49,1
117872544,13278,-8786,-8170,0.776046407,0.630675807,0.161603821,-0.99074784,-0.135715572,-5460,-12620,-12298,692,119,-212,747,141,59,1
117892544,14400,-3950,-2079,0.764921401,0.64412363,0.163325962,-0.99121554,-0.13225639,-3134,-2594,98,621,-205,-144,739,145,43,1
117912544,17092,-2284,277,0.760405966,0.649448048,0.166768747,-0.991894443,-0.127064609,2286,938,4782,259,-30,-215,733,151,25,1
117932544,14958,273,2878,0.758134336,0.652098404,0.165047606,-0.992546152,-0.121869343,-1962,6138,10030,162,258,-219,721,167,52,1
117952544,13912,1237,4438,0.758134336,0.652098404,0.159881188,-0.99317065,-0.116670737,-4082,7984,13034,43,281,-163,749,169,57,1
117972544,12750,1186,2623,0.759271307,0.650774217,0.154710386,-0.993960955,-0.109734311,-6474,7700,9126,-3,207,-98,755,165,76,1
117992544,12959,-2831,122,0.752414909,0.65868946,0.154710386,-0.994337944,-0.106264071,-6140,-626,3810,371,-25,-11,753,169,63,1
118012544,12085,-403,836,0.744311546,0.667832555,0.149535343,-0.99505557,-0.09931975,-7906,4232,5082,529,-83,-33,759,165,56,1
118032544,15573,-508,1593,0.730162277,0.683273774,0.146083029,-0.996041065,-0.088894297,-984,3926,6246,830,-312,-152,739,163,73,1
118052544,14274,-2885,-1893,0.713250449,0.700909264,0.147809411,-0.996917334,-0.078459096,-3642,-920,-1214,963,-470,-154,755,193,62,1
118072544,10761,-3320,-393,0.693401828,0.720551112,0.15126082,-0.99756405,-0.069756474,-10692,-1806,1544,1058,-430,-88,753,195,72,1
118092544,12090,-4631,931,0.671720589,0.740804596,0.154710386,-0.998341817,-0.057564027,-8048,-4360,3874,1228,-496,-41,745,185,38,1
118112544,15324,-6701,1293,0.649448048,0.760405966,0.159881188,-0.998889875,-0.047106451,-1586,-8404,4230,1152,-429,22,739,195,18,1
118132548,16982,-5629,605,0.632029303,0.774944489,0.159881188,-0.999390827,-0.034899497,1726,-6160,2460,945,-442,91,717,207,-10,1
118152548,17792,-2092,3326,0.618408395,0.785856893,0.15126082,-0.999815712,-0.019197442,3324,844,7486,707,-491,212,749,209,-3,1
118172548,18166,1698,5745,0.6059884,0.795473481,0.133986185,-0.999986292,0.005235964,4000,8026,11656,656,-633,402,741,207,-14,1
118192548,21887,1915,6093,0.590605668,0.806960312,0.113203214,-0.999610115,0.027921639,11350,7774,11540,786,-696,556,725,187,-17,1
118212548,28844,-362,10503,0.575005252,0.818149717,0.094108313,-0.998134798,0.06104854,25212,2466,19316,788,-1036,689,729,197,-19,1
118232548,31336,241,11188,0.562083378,0.827080574,0.074978727,-0.995396198,0.095845753,30222,3076,19508,555,-1109,646,715,183,-68,1
118252548,32764,-2178,3212,0.55048074,0.834847863,0.059306374,-0.991444861,0.130526192,-32362,-2412,2200,458,-1371,719,717,187,-71,1
118272548,32764,-8544,-9668,0.535826795,0.844327926,0.054078813,-0.987413807,0.158158067,-32184,-15464,-24894,600,-1665,453,689,169,-115,1
118292548,27151,-10197,-14060,0.535826795,0.844327926,0.054078813,-0.980271175,0.19765734,22378,-18858,30450,-125,-2243,290,677,155,-141,1
118312548,20993,-11447,-12138,0.54170821,0.840566603,0.055821505,-0.97154912,0.236838146,10366,-21432,-32564,-444,-2331,300,657,159,-170,1
118332548,18035,-11795,-13788,0.557745109,0.830012285,0.059306374,-0.964557418,0.26387305,4720,-22010,28736,-876,-1845,58,631,151,-218,1
118352548,15428,-568,-7840,0.58212297,0.813100761,0.047106451,-0.958819735,0.284015345,-302,452,-25536,-1347,-1537,95,603,141,-230,1
118372548,11176,754,-9249,0.597625147,0.801775644,0.034899497,-0.9547608,0.297374874,-8620,2760,-28968,-958,-1524,100,571,113,-219,1
118392548,5033,1743,-10045,0.603207988,0.797583929,0.026176948,-0.952129393,0.305695305,-20780,4530,-30948,-420,-1431,8,551,93,-254,1
118412548,1370,1875,-9925,0.60737584,0.794414621,0.017452406,-0.953716951,0.3007058,-28162,4524,-30536,-252,-852,38,523,103,-270,1
118432548,-43,-515,-9759,0.610145164,0.792289643,0.010471784,-0.959805292,0.280666709,-31210,-700,-29520,-278,-178,234,535,87,-285,1
118452548,853,-2947,-9516,0.6142852,0.789084085,0.008726535,-0.97154912,0.236838146,-29830,-5852,-27642,-337,731,308,519,91,-282,1
118472548,4528,-6149,-7613,0.629320391,0.777145961,0.017452406,-0.987413807,0.158158067,-23126,-12264,-21052,-923,2451,134,543,65,-229,1
118492548,6293,-8727,-7109,0.641449632,0.767165152,0.034899497,-0.993571856,0.113203214,-19818,-16938,-18452,-632,1174,-52,565,49,-220,1
118512552,8981,-7335,-4364,0.653420604,0.756995056,0.05059294,-0.994880709,0.101056297,-14488,-13526,-12386,-685,86,-105,601,57,-174,1
118532552,16629,-5077,4832,0.673012514,0.739631095,0.055821505,-0.989525789,0.144356201,922,-8530,5140,-1125,-1500,-89,591,9,-192,1
118552552,17306,-3477,11763,0.688354576,0.725374371,0.057564027,-0.981627183,0.190808995,2494,-5172,17708,-855,-1351,-96,575,7,-209,1
118572552,18709,4287,11357,0.707106781,0.707106781,0.045362988,-0.978508985,0.206204185,5404,10344,16356,-1091,-82,-92,563,-13,-225,1
118592552,16565,13650,12654,0.727772758,0.685818353,0.033155178,-0.98450318,0.175366726,910,28962,19986,-1151,1808,-406,569,5,-201,1
118612552,13707,16254,11361,0.731353702,0.68199836,0.022687334,-0.989525789,0.144356201,-4958,-31570,18420,-137,1821,-512,621,-37,-162,1
118632552,16682,10345,11639,0.728968627,0.684547106,0.015707317,-0.99074784,0.135715572,944,21680,19304,191,953,-277,615,-31,-133,1
118652552,13534,7082,5316,0.728968627,0.684547106,0.008726535,-0.994337944,0.106264071,-5448,14920,7448,-52,1539,-328,645,-15,-126,1
118672552,15857,5088,6849,0.734914595,0.67815967,0.012217001,-0.997314477,0.073238197,-898,10900,11686,-330,1804,-573,675,-21,-67,1
118692552,23175,-6944,-8411,0.724171861,0.689619544,0.040131793,-0.999847695,0.017452406,13696,-12768,-17656,684,1886,-866,699,-11,-41,1
118712552,26901,-133,-4181,0.703394703,0.710799474,0.059306374,-0.999847695,-0.017452406,21188,1744,-7880,1160,1212,-866,721,27,8,1
118732552,19949,-1241,10726,0.683273774,0.730162277,0.073238197,-0.999975631,-0.00698126,7330,-56,22198,1132,162,-656,717,35,0,1
118752552,24569,-2287,1560,0.683273774,0.730162277,0.087155743,-0.999610115,-0.027921639,16622,-1688,4134,-27,992,-626,727,53,-45,1
118772552,22344,-957,-238,0.675590208,0.737277337,0.101056297,-0.99853667,-0.054078813,12248,1422,1308,344,1092,-613,759,65,18,1
118792552,15842,-780,-245,0.66653247,0.745476,0.104528463,-0.997185134,-0.074978727,-690,1908,1988,449,898,-268,747,77,29,1
118812552,25053,-3642,8546,0.663926213,0.74779809,0.101056297,-0.998806137,-0.04884977,17678,-3978,19056,220,-583,122,753,95,50,1
118832552,24801,691,3601,0.663926213,0.74779809,0.092370587,-0.998719357,-0.05059294,17156,4554,9092,-8,415,175,763,77,53,1
118852552,17120,-9406,-3415,0.64678978,0.76266833,0.107999356,-0.996778878,-0.080198924,1838,-15604,-4310,823,997,-293,769,77,71,1
118872552,12222,-8719,-5585,0.633380873,0.77384021,0.127064609,-0.994880709,-0.101056297,-7848,-13682,-8114,640,535,-329,765,95,71,1
118892556,12954,-4085,-4586,0.627963058,0.778243149,0.133986185,-0.992965508,-0.118403968,-6250,-3890,-5516,178,473,-192,765,73,82,1
118912556,15270,-1768,-2352,0.62114778,0.783693457,0.135715572,-0.992114701,-0.125333234,-1544,942,-648,342,257,-149,761,77,117,1
118932556,15260,-1934,-387,0.612907054,0.790155012,0.135715572,-0.992757342,-0.120136839,-1564,608,3246,387,-49,-103,763,111,82,1
118952556,14682,-1231,1719,0.610145164,0.792289643,0.13225639,-0.993372766,-0.11493715,-2744,1926,7380,193,49,26,749,99,83,1
118972556,14889,-2790,464,0.610145164,0.792289643,0.130526192,-0.993767919,-0.111468932,-2370,-1302,4686,2,104,37,761,105,81,1
118992556,13235,-2599,1214,0.610145164,0.792289643,0.130526192,-0.993960955,-0.109734311,-5686,-910,6090,-47,120,15,761,97,108,1
119012556,13368,-2411,1835,0.610145164,0.792289643,0.130526192,-0.994337944,-0.106264071,-5418,-546,7348,15,155,-7,759,95,101,1
119032556,13855,-1095,3610,0.60737584,0.794414621,0.128795597,-0.995724698,-0.092370587,-4478,2112,10582,226,-79,-48,753,99,117,1
119052556,14316,332,3387,0.600420225,0.799684658,0.123601477,-0.997314477,-0.073238197,-3632,4898,9484,348,-392,-46,757,87,129,1
119072556,12948,-643,-2033,0.589196357,0.807989884,0.118403968,-0.997684279,-0.068015291,-6446,2686,-1920,545,-352,68,743,105,118,1
119092556,11593,-1290,-2912,0.570713568,0.821149209,0.11493715,-0.997801468,-0.0662739,-9190,1196,-3824,865,-337,56,741,87,109,1
119112556,12375,-2089,-1282,0.546101961,0.837718717,0.111468932,-0.998134798,-0.06104854,-7644,-526,-556,1179,-292,21,755,95,70,1
119132556,14357,-3850,298,0.521009632,0.853550797,0.109734311,-0.998629535,-0.052335956,-3710,-4206,2378,1195,-377,100,741,99,75,1
119152556,16118,-4783,2329,0.496973961,0.867765453,0.109734311,-0.999262916,-0.038387809,-212,-6126,6106,1103,-392,147,745,111,62,1
119172556,18023,-1457,7836,0.478691858,0.877982975,0.09931975,-0.999876632,-0.015707317,3566,392,16628,911,-436,305,733,105,84,1
119192556,23456,-1869,13513,0.467929814,0.88376563,0.085416923,-0.999902524,0.01396218,14372,-888,27100,561,-585,495,729,93,58,1
119212556,28775,-4902,14704,0.455544907,0.890212805,0.073238197,-0.998719357,0.05059294,24986,-7454,28200,538,-988,586,717,87,43,1
119232556,31568,-1549,10753,0.452434709,0.89179753,0.055821505,-0.995724698,0.092370587,30626,-1240,18746,46,-1384,674,707,97,19,1
119252556,32764,-2345,1510,0.449318999,0.893371388,0.041875654,-0.991671162,0.128795597,-32390,-3326,-1220,84,-1506,577,699,67,-1,1
119272560,31302,-4670,-14823,0.43993917,0.898027576,0.036643709,-0.988493887,0.15126082,30386,-8232,30470,309,-1533,364,677,63,-50,1
119292560,27741,-6915,-11860,0.43993917,0.898027576,0.033155178,-0.981292664,0.192521967,23482,-12892,-30462,-64,-2303,292,669,57,-87,1
119312560,20638,-7307,-11849,0.446197813,0.894934362,0.034899497,-0.972775878,0.231747903,9600,-13682,-31846,-402,-2382,122,657,39,-107,1
119332560,17484,-5261,-11601,0.4539905,0.891006524,0.040131793,-0.967267753,0.253757945,3520,-9394,-32142,-460,-1717,-72,631,47,-126,1
119352560,14499,511,-5975,0.469471563,0.882947593,0.034899497,-0.962217994,0.272280247,-2296,2242,-21400,-736,-1441,-91,625,53,-146,1
119372560,12484,586,-8120,0.481753674,0.87630668,0.027921639,-0.958322574,0.285688367,-6156,2168,-26262,-657,-1401,-19,591,37,-171,1
119392560,7147,-272,-8494,0.487859659,0.872922077,0.026176948,-0.956813584,0.290702194,-16734,306,-27312,-371,-1239,-29,603,43,-173,1
119412560,4419,-469,-8692,0.495458668,0.868631514,0.022687334,-0.957822495,0.28736052,-22214,-198,-27638,-429,-930,-10,589,11,-208,1
119432560,2598,-1392,-8543,0.506033764,0.862513669,0.019197442,-0.963162567,0.268919821,-26034,-2252,-26778,-580,-361,117,579,7,-195,1
119452560,2837,-2492,-8878,0.519519112,0.85445883,0.017452406,-0.97113428,0.238533458,-25852,-4634,-26418,-813,230,166,585,23,-217,1
119472560,2732,-2685,-9975,0.54024032,0.841510782,0.017452406,-0.985109326,0.1719291,-26586,-5026,-26440,-1065,1684,46,605,-9,-204,1
119492560,5463,-3818,-5945,0.563526049,0.826098294,0.026176948,-0.993372766,0.11493715,-21462,-7120,-16320,-1137,1522,-124,619,-37,-158,1
119512560,6328,-6758,-5079,0.570713568,0.821149209,0.047106451,-0.995724698,0.092370587,-19822,-12510,-13662,-393,357,-198,637,-39,-127,1
119532560,12781,-6987,-972,0.594822787,0.803856861,0.059306374,-0.994702817,0.102792537,-6896,-12404,-5404,-1252,-471,-122,621,-45,-122,1
119552560,16912,-4961,8273,0.619779032,0.784776371,0.064532308,-0.988493887,0.15126082,1518,-7956,11936,-1294,-1502,-168,625,-65,-149,1
119572560,16807,319,12022,0.632029303,0.774944489,0.064532308,-0.982935349,0.183951351,1484,2848,18476,-595,-739,-202,613,-73,-135,1
119592560,18391,10060,7633,0.645457688,0.763796029,0.055821505,-0.985407898,0.170209499,4624,22468,9922,-649,901,-418,613,-95,-148,1
119612560,17369,11620,12673,0.649448048,0.760405966,0.052335956,-0.988228381,0.152985836,2454,25496,20788,-159,1296,-567,629,-89,-104,1
119632560,16547,11950,13082,0.649448048,0.760405966,0.047106451,-0.990023658,0.140901232,742,25990,22048,60,1112,-462,643,-83,-111,1
119652564,15057,7370,9764,0.662620048,0.748955721,0.043619387,-0.991671162,0.128795597,-2286,16622,15720,-615,1017,-507,669,-71,-64,1
119672564,12901,5601,5116,0.669130606,0.743144825,0.052335956,-0.996345296,0.085416923,-6728,13362,7742,-312,2185,-928,695,-57,18,1
119692564,19835,8484,8215,0.67687597,0.736097087,0.06104854,-0.998806137,0.04884977,7096,19394,15214,-368,1999,-912,715,-69,12,1
119712564,27577,-2714,-9240,0.650774217,0.759271307,0.081938509,-0.999961923,-0.008726535,22574,-2732,-18438,1402,1899,-862,741,-37,67,1
119732564,24035,-8,-1451,0.625242656,0.780430407,0.088894297,-0.999610115,-0.027921639,15546,3010,-2004,1264,651,-470,757,-37,101,1
119752564,21026,-3958,5237,0.610145164,0.792289643,0.09931975,-0.999657325,-0.026176948,9568,-4724,11614,754,267,-389,751,-33,89,1
119772564,21447,-6228,-1795,0.603207988,0.797583929,0.120136839,-0.998134798,-0.06104854,10516,-8628,-1568,289,1438,-746,771,-19,96,1
119792564,18536,-9219,-3317,0.587785252,0.809016994,0.140901232,-0.9952274,-0.0975829,4848,-14108,-3522,696,1314,-537,763,-3,128,1
119812564,14270,-9268,-2188,0.576432316,0.817144898,0.156434465,-0.992965508,-0.118403968,-3540,-13792,-552,543,801,-247,789,5,150,1
119832564,25559,-6096,7944,0.589196357,0.807989884,0.158158067,-0.995724698,-0.092370587,19056,-7030,19258,-571,-450,-16,781,33,175,1
119852564,30900,8388,5146,0.619779032,0.784776371,0.144356201,-0.996041065,-0.088894297,29696,21902,13422,-1528,456,248,787,-3,171,1
119872564,17693,-2438,-655,0.62114778,0.783693457,0.147809411,-0.992546152,-0.121869343,3350,4,2760,-92,1547,-205,781,27,172,1
119892564,12248,-3293,-2690,0.608761429,0.79335334,0.154710386,-0.988756381,-0.149535343,-7412,-1588,-600,564,983,-294,787,35,239,1
119912564,11318,-5458,-5308,0.593418887,0.804893797,0.163325962,-0.985703469,-0.16848938,-9174,-5780,-5364,653,471,-203,801,39,240,1
119932564,13507,-4345,-3592,0.576432316,0.817144898,0.166768747,-0.983885038,-0.178802215,-4674,-3296,-1486,807,197,-215,803,43,241,1
119952564,14098,-2995,687,0.563526049,0.826098294,0.170209499,-0.98450318,-0.175366726,-3422,-430,7270,610,119,-213,807,41,261,1
119972564,14979,1371,5686,0.560638995,0.828060335,0.163325962,-0.986572162,-0.163325962,-1676,8360,17116,227,95,-111,815,57,237,1
119992564,15564,1310,7688,0.559192903,0.829037573,0.158158067,-0.989272333,-0.146083029,-628,8026,20632,135,27,-82,801,59,259,1
120012564,14233,2135,3827,0.560638995,0.828060335,0.154710386,-0.990023658,-0.140901232,-3422,9460,12338,-40,26,-17,797,55,248,1
120032564,11188,1251,-890,0.55048074,0.834847863,0.144356201,-0.99074784,-0.135715572,-9572,7510,2684,460,-142,-1,789,49,258,1
120052568,9630,-133,-840,0.53139858,0.847121921,0.135715572,-0.992114701,-0.125333234,-12804,4348,2426,937,-478,13,805,59,254,1
120072568,11907,-416,-219,0.503019947,0.864274802,0.127064609,-0.994150964,-0.107999356,-8360,3476,3166,1312,-719,30,799,51,233,1
120092568,13099,-1931,-2014,0.467929814,0.88376563,0.123601477,-0.995884399,-0.09063258,-6080,236,-1080,1607,-877,-62,787,25,196,1
120112568,12933,-4539,-1646,0.430511097,0.902585284,0.127064609,-0.997314477,-0.073238197,-6474,-5102,-914,1651,-889,-26,783,51,180,1
120132568,13232,-7579,-2441,0.398749069,0.917060074,0.130526192,-0.998026728,-0.06279052,-5904,-11230,-2884,1376,-643,167,783,45,150,1
120152568,15115,-7328,507,0.376224263,0.926528631,0.130526192,-0.998629535,-0.052335956,-2138,-10674,2806,1013,-445,278,779,43,163,1
120172568,16058,-3319,8792,0.36162457,0.932323801,0.118403968,-0.999657325,-0.026176948,-288,-2780,18938,700,-481,461,789,33,146,1
120192568,27884,-5893,12258,0.345298199,0.938493023,0.106264071,-0.999986292,0.005235964,23280,-8368,24794,756,-763,585,777,39,138,1
120212568,32764,-6609,14448,0.343659695,0.939094252,0.09063258,-0.999262916,0.038387809,-32536,-10332,28054,106,-861,735,767,-3,106,1
120232568,32764,1747,9427,0.345298199,0.938493023,0.069756474,-0.997185134,0.074978727,-32520,5906,16622,-173,-1220,660,751,11,96,1
120252568,32764,397,-1038,0.342020143,0.939692621,0.04884977,-0.993767919,0.111468932,-32434,2508,-5816,41,-1581,688,733,-9,79,1
120272568,32764,-3224,-16167,0.330514393,0.943800952,0.041875654,-0.99121554,0.13225639,-32306,-5084,28354,413,-1515,376,739,-11,47,1
120292568,29815,-7971,-13027,0.322265695,0.94664926,0.045362988,-0.984195608,0.17708474,27540,-14646,-32278,271,-2385,158,699,19,-19,1
120312568,19962,-4719,-10051,0.323917418,0.946085359,0.043619387,-0.974761194,0.223250116,8174,-8150,-27916,-157,-2611,189,685,17,-61,1
120332568,16584,-7399,-14096,0.333806859,0.942641491,0.045362988,-0.966376079,0.257132793,1762,-13570,28240,-572,-2317,107,665,5,-91,1
120352568,13110,-221,-8274,0.351841648,0.936059536,0.036643709,-0.960293686,0.278991106,-4982,772,-26316,-897,-1691,94,651,-3,-114,1
120372568,8857,-477,-9368,0.36325123,0.931691228,0.029666244,-0.956304756,0.292371705,-13314,36,-29066,-617,-1547,56,629,-13,-127,1
120392568,5032,348,-10139,0.369746757,0.929132572,0.024432178,-0.955278362,0.29570805,-20900,1574,-30790,-383,-1233,19,617,-13,-158,1
120412568,2016,442,-10028,0.376224263,0.926528631,0.019197442,-0.957822495,0.28736052,-27016,1582,-30312,-368,-756,40,599,-3,-171,1
120432572,301,-1394,-9976,0.385906042,0.922538089,0.01396218,-0.964557418,0.26387305,-30690,-2414,-29416,-533,-72,180,579,-19,-162,1
120452572,1298,-3070,-11162,0.401947777,0.915662593,0.012217001,-0.977045574,0.213030386,-29146,-5964,-30148,-857,1034,169,603,-29,-185,1
120472572,3634,-3772,-8563,0.428935133,0.903335293,0.01396218,-0.991894443,0.127064609,-25062,-7420,-22098,-1257,2503,118,613,-39,-125,1
120492572,4383,-6572,-5751,0.441505853,0.89725837,0.029666244,-0.996492859,0.083677843,-23748,-12798,-14818,-614,1097,59,653,-55,-83,1
120512572,7626,-8536,-3086,0.449318999,0.893371388,0.04884977,-0.997185134,0.074978727,-17288,-16126,-8882,-381,90,-25,639,-69,-73,1
120532572,17247,-6927,5009,0.464842046,0.885393626,0.054078813,-0.99317065,0.116670737,2048,-12332,6394,-751,-1436,11,643,-75,-80,1
120552572,20548,-3057,12329,0.475624209,0.879648573,0.057564027,-0.986285602,0.165047606,8842,-4284,19672,-514,-1434,-115,633,-109,-112,1
120572572,22368,8350,10568,0.495458668,0.868631514,0.045362988,-0.986572162,0.163325962,12504,18548,16070,-924,467,-117,631,-103,-117,1
120592572,14695,12646,12417,0.516533329,0.856267085,0.038387809,-0.991444861,0.130526192,-3032,27146,21040,-906,1992,-615,629,-117,-94,1
120612572,12038,12927,15606,0.515038075,0.857167301,0.036643709,-0.994521895,0.104528463,-8444,27658,28450,171,1903,-667,669,-105,-38,1
120632572,17277,11486,12372,0.513541252,0.858064906,0.031410759,-0.995561965,0.094108313,2020,24496,22138,48,1006,-391,675,-99,-20,1
120652572,14966,10792,9846,0.521009632,0.853550797,0.01396218,-0.99505557,0.09931975,-2602,22592,16868,-313,342,-39,695,-101,-10,1
120672572,14791,5495,2146,0.528438335,0.848971688,0.008726535,-0.999048222,0.043619387,-3078,11642,3018,-370,2442,-267,673,-121,59,1
120692572,22071,-6243,3941,0.507538363,0.86162916,0.034899497,-0.99970149,0.024432178,11488,-11574,7290,977,1026,-773,701,-113,54,1
120712572,28794,-8461,-8802,0.478691858,0.877982975,0.064532308,-0.999742609,-0.022687334,24966,-15008,-17082,1297,1540,-998,735,-73,76,1
120732572,20724,-259,-1148,0.471011881,0.882126866,0.080198924,-0.998239828,-0.059306374,8948,2202,-328,252,1530,-802,727,-39,88,1
120752572,25440,2170,-2363,0.472550765,0.881303452,0.088894297,-0.997052752,-0.076719028,18474,7482,-2188,-129,802,-646,743,-43,117,1
120772572,26378,-772,78,0.457097927,0.889416373,0.102792537,-0.995724698,-0.092370587,20438,1938,3310,634,744,-743,743,-31,135,1
120792572,22190,-2882,2859,0.447759088,0.894154237,0.109734311,-0.99505557,-0.09931975,12114,-2186,9186,430,528,-307,739,-21,153,1
120812576,23815,-1309,5819,0.450877541,0.892585818,0.104528463,-0.995884399,-0.09063258,15338,896,14934,-143,135,80,737,-23,159,1
120832576,19334,-2684,2248,0.450877541,0.892585818,0.107999356,-0.994337944,-0.106264071,6416,-1842,8170,-19,927,-116,737,-9,188,1
120852576,14544,-11315,-6632,0.432085749,0.901832526,0.125333234,-0.990509463,-0.137444546,-3070,-18938,-8976,818,1004,-316,735,21,192,1
120872576,12565,-8647,-7104,0.417867074,0.908508178,0.140901232,-0.986285602,-0.165047606,-6836,-13052,-9116,496,732,-240,733,35,199,1
120892576,14245,-2766,-5016,0.41310443,0.910683661,0.140901232,-0.983571471,-0.180519145,-3316,-904,-4340,185,448,-83,735,39,204,1
120912576,14472,-1701,316,0.403545296,0.914959668,0.142628934,-0.984195608,-0.17708474,-2800,1302,6592,373,150,-169,741,25,221,1
120932576,14932,-903,2815,0.390731128,0.920504853,0.142628934,-0.984807753,-0.173648178,-1872,2950,11600,585,223,-253,739,55,219,1
120952576,15069,1257,5169,0.384295323,0.923210217,0.139173101,-0.987136265,-0.159881188,-1652,7280,16004,277,65,-203,747,49,223,1
120972576,14710,194,3543,0.382683432,0.923879533,0.137444546,-0.987959866,-0.154710386,-2438,5040,12476,122,260,-171,741,57,219,1
120992576,12716,33,3382,0.377840787,0.925870585,0.135715572,-0.989015863,-0.147809411,-6464,4654,11966,271,252,-189,737,69,223,1
121012576,11865,-660,912,0.369746757,0.929132572,0.13225639,-0.990023658,-0.140901232,-8244,3140,6640,337,7,-93,735,65,211,1
121032576,11070,-890,426,0.356737999,0.934204474,0.130526192,-0.991671162,-0.128795597,-9916,2596,5228,534,-313,-110,743,59,201,1
121052576,11635,-1421,192,0.34037955,0.940288127,0.130526192,-0.993372766,-0.11493715,-8858,1464,4294,720,-426,-115,727,73,238,1
121072576,11892,-2711,-1484,0.317304656,0.948323655,0.130526192,-0.994702817,-0.102792537,-8424,-1230,386,931,-599,-20,709,87,210,1
121092576,12792,-4452,-1350,0.294040325,0.955793015,0.13225639,-0.995724698,-0.092370587,-6666,-4750,316,1013,-526,10,719,105,200,1
121112576,13064,-3740,72,0.267238376,0.963630453,0.13225639,-0.996917334,-0.078459096,-6150,-3270,2802,1107,-553,27,693,99,189,1
121132576,14565,-4306,1542,0.240228042,0.970716482,0.130526192,-0.998239828,-0.059306374,-3198,-4444,5174,1166,-707,94,687,123,159,1
121152576,18584,-1264,5759,0.218143241,0.975916762,0.120136839,-0.999390827,-0.034899497,4784,1470,12986,906,-641,310,683,117,169,1
121172576,21746,452,9912,0.19765734,0.980271175,0.102792537,-1,6.12E-17,11018,4428,20294,934,-895,462,667,113,154,1
121192580,28366,-3523,10732,0.175366726,0.98450318,0.087155743,-0.999262916,0.038387809,24194,-4184,20548,924,-1251,651,661,107,118,1
121212580,32764,-3769,8803,0.161603821,0.986855716,0.073238197,-0.997052752,0.076719028,-32520,-5120,15344,503,-1267,577,623,111,113,1
121232580,32764,564,4616,0.156434465,0.987688341,0.052335956,-0.993372766,0.11493715,-32436,2950,5544,125,-1510,759,625,93,85,1
121252580,32764,-3933,-4851,0.146083029,0.989272333,0.045362988,-0.990023658,0.140901232,-32298,-6446,-14570,315,-1396,415,617,111,73,1
121272580,29254,-7606,-9385,0.140901232,0.990023658,0.043619387,-0.984807753,0.173648178,26404,-13950,-24864,139,-1846,277,605,115,38,1
121292580,24044,-10527,-15081,0.147809411,0.989015863,0.043619387,-0.977783237,0.209618563,16254,-19878,27936,-414,-2187,237,589,101,44,1
121312580,18824,-11408,-15396,0.158158067,0.987413807,0.047106451,-0.970716482,0.240228042,6076,-21608,26256,-553,-2053,184,559,115,-30,1
121332580,12119,-3521,-8093,0.182235525,0.983254908,0.043619387,-0.966376079,0.257132793,-7176,-5768,-25220,-1146,-1456,68,547,99,-34,1
121352580,11257,-1425,-8890,0.206204185,0.978508985,0.034899497,-0.963630453,0.267238376,-8796,-1766,-27196,-1139,-1268,148,557,97,-61,1
121372580,7003,-767,-9882,0.226651307,0.973975967,0.026176948,-0.964095404,0.265556117,-17276,-682,-29290,-1002,-1009,73,529,81,-68,1
121392580,4598,551,-10956,0.246999013,0.969015731,0.017452406,-0.966823389,0.255445758,-22178,1734,-31128,-901,-633,62,533,87,-60,1
121412580,3357,151,-10672,0.26387305,0.964557418,0.005235964,-0.97236992,0.233445364,-24848,524,-29892,-867,-238,201,525,71,-64,1
121432580,2231,-1994,-11398,0.285688367,0.958322574,0,-0.982935349,0.183951351,-27500,-4158,-29686,-1027,983,213,519,71,-65,1
121452580,4188,-2356,-8192,0.323917418,0.946085359,-0.003490651,-0.993767919,0.111468932,-24026,-5100,-20814,-1676,1957,172,549,37,-33,1
121472580,5075,-3321,-4137,0.343659695,0.939094252,0.003490651,-0.996778878,0.080198924,-22374,-6912,-11476,-922,531,18,551,11,-1,1
121492580,8463,-5089,-5883,0.35836795,0.933580426,0.01396218,-0.998440764,0.055821505,-15668,-10114,-14122,-649,371,39,559,15,33,1
121512580,13282,-4436,1043,0.387515586,0.921863152,0.017452406,-0.996778878,0.080198924,-6022,-8582,-468,-1295,-846,115,529,-1,33,1
121532580,16777,-1372,9795,0.414693243,0.909961271,0.015707317,-0.99074784,0.135715572,1112,-2234,15566,-1255,-1756,-70,537,-31,39,1
121552580,18943,3958,7830,0.436801788,0.899557779,0.012217001,-0.990023658,0.140901232,5504,8552,11300,-1025,146,-268,515,-35,-14,1
121572580,15281,10396,10943,0.452434709,0.89179753,0.008726535,-0.992546152,0.121869343,-1920,21586,18350,-633,1389,-564,541,-35,18,1
121592584,15256,12068,13766,0.450877541,0.892585818,0.010471784,-0.994521895,0.104528463,-2030,24990,24662,136,1403,-706,545,-35,37,1
121612584,16997,11898,11561,0.447759088,0.894154237,0.00698126,-0.995396198,0.095845753,1438,24552,20438,181,910,-534,549,-33,67,1
121632584,14034,9496,8835,0.444635179,0.89571176,0,-0.995396198,0.095845753,-4486,19542,14976,116,560,-392,559,-33,92,1
121652584,14868,6067,3268,0.433659085,0.901077021,0.008726535,-0.998134798,0.06104854,-2886,12794,4702,506,1583,-754,573,-11,91,1
121672584,18630,3195,8946,0.425779292,0.904827052,0.022687334,-0.99912283,0.041875654,4614,7318,16938,365,1325,-823,559,-13,104,1
121692584,25128,-7110,-10939,0.387515586,0.921863152,0.052335956,-0.999902524,-0.01396218,17602,-12674,-21762,1678,1777,-994,575,27,164,1
121712584,22247,-5970,-2364,0.366501227,0.930417568,0.069756474,-0.999194395,-0.040131793,11916,-9798,-3432,883,1036,-565,589,55,163,1
121732584,21779,-4098,5010,0.371367836,0.928485827,0.078459096,-0.999328394,-0.036643709,11032,-5680,11486,-218,233,-272,579,73,170,1
121752584,27394,-6694,-164,0.392337117,0.919821497,0.101056297,-0.998239828,-0.059306374,22340,-10190,1694,-978,1136,-713,599,65,210,1
121772584,22137,-2552,923,0.398749069,0.917060074,0.109734311,-0.997052752,-0.076719028,11926,-1486,4472,-304,922,-379,583,73,202,1
121792584,21516,347,4931,0.409923034,0.912120116,0.107999356,-0.99756405,-0.069756474,10694,4398,12448,-521,214,-101,601,81,215,1
121812584,22084,5362,1037,0.422618262,0.906307787,0.0975829,-0.996492859,-0.083677843,11838,14280,4958,-519,842,35,603,81,224,1
121832584,16729,-7120,-3650,0.403545296,0.914959668,0.107999356,-0.994150964,-0.107999356,1152,-10946,-3876,756,805,-197,599,77,221,1
121852584,13447,-10370,-4607,0.382683432,0.923879533,0.123601477,-0.992546152,-0.121869343,-5326,-17124,-5376,867,368,-204,593,79,248,1
121872584,15379,-5425,-4510,0.372987783,0.927836254,0.130526192,-0.990509463,-0.137444546,-1330,-6704,-4692,335,438,-163,613,95,258,1
121892584,14818,-3577,-2177,0.36325123,0.931691228,0.137444546,-0.989015863,-0.147809411,-2346,-2718,448,426,429,-239,593,103,269,1
121912584,14497,-1419,341,0.351841648,0.936059536,0.139173101,-0.988228381,-0.152985836,-2904,1816,5836,469,437,-281,585,101,283,1
121932584,13732,1201,3947,0.343659695,0.939094252,0.135715572,-0.988756381,-0.149535343,-4412,7074,13158,338,368,-180,601,109,283,1
121952584,12271,1570,4429,0.34037955,0.940288127,0.128795597,-0.989525789,-0.144356201,-7376,7628,14024,229,409,-102,605,117,269,1
121972588,13354,881,3203,0.33873792,0.940880769,0.121869343,-0.990509463,-0.137444546,-5302,5968,11222,116,175,5,605,119,276,1
121992588,12742,1996,3056,0.333806859,0.942641491,0.111468932,-0.991894443,-0.127064609,-6608,7910,10618,251,82,61,589,115,282,1
122012588,11574,2016,2942,0.317304656,0.948323655,0.102792537,-0.993571856,-0.113203214,-9040,7662,9952,720,-148,-92,585,129,288,1
122032588,12137,-515,1985,0.289031797,0.957319498,0.09931975,-0.995724698,-0.092370587,-8046,2316,7268,1180,-622,-140,583,135,281,1
122052588,12047,-3200,-78,0.255445758,0.966823389,0.101056297,-0.997314477,-0.073238197,-8322,-3226,2338,1367,-778,-20,601,131,266,1
122072588,13325,-3847,-2402,0.223250116,0.974761194,0.09931975,-0.998341817,-0.057564027,-5816,-4558,-2984,1320,-834,106,593,157,264,1
122092588,12889,-3097,-22,0.194234351,0.980955155,0.0975829,-0.999328394,-0.036643709,-6718,-3110,1242,1200,-864,171,589,165,225,1
122112588,13847,-2418,2539,0.165047606,0.986285602,0.092370587,-0.99992537,-0.012217001,-4836,-1874,5686,1203,-858,240,583,155,220,1
122132588,17022,-2265,6208,0.137444546,0.990509463,0.083677843,-0.999847695,0.017452406,1486,-1792,12178,1179,-868,325,567,171,199,1
122152588,24474,-3526,12599,0.107999356,0.994150964,0.073238197,-0.998440764,0.055821505,16386,-4676,23800,1149,-1082,495,575,173,188,1
122172588,32764,-10193,15081,0.088894297,0.996041065,0.064532308,-0.9952274,0.0975829,-32508,-18448,27310,778,-1307,629,531,145,191,1
122192588,32764,-3448,6936,0.088894297,0.996041065,0.047106451,-0.99121554,0.13225639,-32384,-5386,9668,-119,-1232,741,541,147,168,1
122212588,32764,-2835,-1486,0.088894297,0.996041065,0.029666244,-0.986285602,0.165047606,-32212,-4746,-8526,-133,-1545,743,547,155,151,1
122232588,32079,-4436,-9694,0.083677843,0.996492859,0.024432178,-0.982612797,0.185666615,32124,-8162,-25886,101,-1385,320,533,153,119,1
122252588,28797,-6351,-13714,0.094108313,0.995561965,0.017452406,-0.974370065,0.224951054,25850,-12274,30194,-537,-2309,340,517,151,91,1
122272588,20482,-8689,-17899,0.094108313,0.995561965,0.019197442,-0.965925826,0.258819045,9556,-17008,20570,-139,-2288,227,501,151,71,1
122292588,11940,-5111,-9297,0.101056297,0.994880709,0.024432178,-0.960779154,0.277314653,-7340,-9672,-28354,-357,-1632,-5,493,153,38,1
122312588,11188,-1908,-8944,0.109734311,0.993960955,0.022687334,-0.959313975,0.282341457,-8776,-3156,-27830,-416,-1080,79,501,143,9,1
122332588,9272,-3156,-10182,0.11493715,0.993372766,0.027921639,-0.959805292,0.280666709,-12612,-5592,-30292,-325,-890,-60,479,133,6,1
122352592,4791,-1094,-11272,0.127064609,0.991894443,0.029666244,-0.962691746,0.270600446,-21638,-1276,-32242,-532,-674,-180,487,145,-7,1
122372592,3263,-105,-10795,0.142628934,0.989776231,0.026176948,-0.968583161,0.248689887,-24894,650,-30610,-739,-213,-67,469,147,3,1
122392592,1954,-1929,-11082,0.165047606,0.986285602,0.022687334,-0.980271175,0.19765734,-27956,-3234,-29478,-1011,1074,33,483,131,-20,1
122412592,3276,-3155,-6576,0.195946144,0.980614659,0.022687334,-0.991894443,0.127064609,-25766,-5880,-18110,-1342,1879,175,499,113,30,1
122432592,3099,-6609,-6367,0.206204185,0.978508985,0.043619387,-0.995724698,0.092370587,-26270,-12420,-16374,-455,697,-89,493,117,28,1
122452592,7343,-6278,-6452,0.213030386,0.977045574,0.059306374,-0.997801468,0.0662739,-17836,-11060,-15634,-381,397,-140,503,111,53,1
122472592,12762,-6869,1944,0.248689887,0.968583161,0.0662739,-0.994521895,0.104528463,-6950,-11912,558,-1524,-1351,37,487,109,38,1
122492592,17072,-3541,8515,0.285688367,0.958322574,0.068015291,-0.988228381,0.152985836,1856,-4926,12368,-1542,-1450,-137,499,89,17,1
122512592,22164,4455,7147,0.315649037,0.948876012,0.064532308,-0.988756381,0.149535343,12076,11322,9590,-1251,474,-398,495,79,52,1
122532592,17877,15109,11196,0.345298199,0.938493023,0.052335956,-0.991671162,0.128795597,3376,32582,18570,-1240,1438,-449,479,67,58,1
122552592,14831,15444,13188,0.346935652,0.937888935,0.047106451,-0.994337944,0.106264071,-2806,-32442,23372,-21,1510,-610,505,83,94,1
122572592,13432,12667,11562,0.346935652,0.937888935,0.034899497,-0.9952274,0.0975829,-5650,27108,20426,76,1007,-281,517,77,117,1
122592592,12650,8591,6162,0.346935652,0.937888935,0.024432178,-0.996345296,0.085416923,-7252,18562,9876,-31,939,-296,507,87,104,1
122612592,19507,8755,13581,0.351841648,0.936059536,0.024432178,-0.997052752,0.076719028,6426,18718,25146,-154,979,-502,515,87,144,1
122632592,23496,-9726,-11944,0.318959309,0.94776841,0.055821505,-0.999902524,0.01396218,14346,-17866,-24698,1354,2055,-892,521,109,113,1
122652592,26062,-5573,-7112,0.278991106,0.960293686,0.083677843,-0.99955986,-0.029666244,19550,-8476,-13408,1685,1423,-1040,519,123,148,1
122672592,20442,187,6408,0.257132793,0.966376079,0.087155743,-0.999876632,-0.015707317,8364,3354,13676,924,-212,-316,505,123,162,1
122692592,28880,-2422,-237,0.26387305,0.964557418,0.102792537,-0.999194395,-0.040131793,25304,-1436,890,-316,1106,-681,511,155,163,1
122712592,19276,-1635,1474,0.240228042,0.970716482,0.116670737,-0.997801468,-0.0662739,6206,612,5296,917,1191,-698,523,145,184,1
122732596,24461,-2707,7981,0.231747903,0.972775878,0.113203214,-0.999194395,-0.040131793,16524,-1658,17620,405,-671,46,515,155,192,1
122752596,25581,-2893,2237,0.236838146,0.97154912,0.107999356,-0.998889875,-0.047106451,18742,-2232,6154,-202,536,215,507,179,175,1
122772596,15665,-12017,-8099,0.214735327,0.976672278,0.121869343,-0.996041065,-0.088894297,-1030,-20462,-13590,782,1283,-113,511,165,227,1
122792596,12234,-12194,-7113,0.206204185,0.978508985,0.139173101,-0.99317065,-0.116670737,-7736,-20336,-10706,330,789,-115,511,169,220,1
122812596,15687,-8955,-6914,0.211324796,0.977415894,0.149535343,-0.99121554,-0.13225639,-686,-13282,-9770,-309,421,-65,519,165,231,1
122832596,15508,-3957,-4188,0.219846204,0.975534544,0.154710386,-0.989776231,-0.142628934,-918,-2880,-3844,-399,422,-100,509,189,232,1
122852596,15877,1739,-1347,0.224951054,0.974370065,0.15126082,-0.988228381,-0.152985836,-72,8698,2350,-223,599,-143,515,183,246,1
122872596,14597,3171,1963,0.219846204,0.975534544,0.142628934,-0.987688341,-0.156434465,-2606,11406,9276,169,492,-195,517,179,229,1
122892596,14229,2232,3802,0.209618563,0.977783237,0.137444546,-0.987688341,-0.156434465,-3360,9258,13094,483,501,-213,511,193,271,1
122912596,13862,2052,5978,0.194234351,0.980955155,0.130526192,-0.988756381,-0.149535343,-4152,8640,17356,630,335,-160,515,193,247,1
122932596,13503,-214,7300,0.180519145,0.983571471,0.127064609,-0.990509463,-0.137444546,-4958,3840,19678,670,204,-119,509,199,260,1
122952596,14603,-1610,2579,0.1719291,0.985109326,0.125333234,-0.991444861,-0.130526192,-2858,912,9692,366,54,-34,529,205,276,1
122972596,13632,-1766,424,0.163325962,0.986572162,0.123601477,-0.992331938,-0.123601477,-4858,536,5034,335,-55,-27,495,217,277,1
122992596,12160,-2391,275,0.147809411,0.989015863,0.125333234,-0.993767919,-0.111468932,-7858,-732,4316,656,-366,-95,505,219,269,1
123012596,10997,-186,2158,0.13225639,0.99121554,0.121869343,-0.996041065,-0.088894297,-10240,3728,7524,656,-567,-99,489,227,255,1
123032596,12569,-2105,-1249,0.107999356,0.994150964,0.11493715,-0.997314477,-0.073238197,-7212,-404,-114,942,-753,121,493,223,238,1
123052596,11571,-4424,-3845,0.078459096,0.996917334,0.11493715,-0.997915618,-0.064532308,-9272,-5280,-5810,1203,-723,192,483,243,245,1
123072596,11995,-4129,-991,0.04884977,0.998806137,0.11493715,-0.998889875,-0.047106451,-8442,-4656,-436,1158,-785,129,471,237,212,1
123092596,14476,-2646,1890,0.02094242,0.999780683,0.109734311,-0.999780683,-0.02094242,-3510,-1718,4634,1130,-971,203,475,225,210,1
123112600,17400,-464,2983,0.001745328,0.999998477,0.0975829,-0.999993908,0.003490651,2304,2394,6070,757,-776,344,445,243,222,1
123132600,22551,-2053,7135,-0.02094242,0.999780683,0.087155743,-0.99955986,0.029666244,12568,-1196,13602,986,-793,387,437,251,181,1
123152600,32727,-8212,10972,-0.038387809,0.999262916,0.076719028,-0.997684279,0.068015291,-32618,-14044,20026,727,-1224,652,427,245,176,1
123172600,32764,-2871,7047,-0.038387809,0.999262916,0.06104854,-0.994880709,0.101056297,-32476,-3728,10972,-98,-1130,597,431,243,150,1
123192600,32764,-2635,470,-0.033155178,0.999450216,0.045362988,-0.991444861,0.130526192,-32366,-3774,-3414,-320,-1327,600,441,255,158,1
123212600,32259,-2972,-7728,-0.034899497,0.999390827,0.036643709,-0.987688341,0.156434465,32304,-4756,-20878,-59,-1421,378,435,227,136,1
123232600,30996,-5892,-11155,-0.029666244,0.99955986,0.031410759,-0.983254908,0.182235525,29940,-10842,-28714,-259,-1641,296,419,235,100,1
123252600,23409,-5716,-9708,-0.026176948,0.999657325,0.029666244,-0.976672278,0.214735327,14996,-10612,-26944,-286,-1969,241,425,235,92,1
123272600,18969,-9645,-8078,-0.02094242,0.999780683,0.036643709,-0.96944535,0.245307386,6358,-18474,-24654,-284,-1844,143,417,219,85,1
123292600,15819,-4797,-9771,-0.005235964,0.999986292,0.034899497,-0.964557418,0.26387305,280,-8646,-28808,-762,-1567,82,397,239,42,1
123312600,12678,-56,-5013,0.015707317,0.999876632,0.024432178,-0.959313975,0.282341457,-5852,706,-19808,-1047,-1433,113,395,221,30,1
123332600,8375,-958,-6116,0.031410759,0.99950656,0.017452406,-0.956813584,0.290702194,-14328,-1376,-22426,-736,-1203,81,401,197,15,1
123352600,6249,-745,-6645,0.043619387,0.999048222,0.012217001,-0.956813584,0.290702194,-18550,-1104,-23578,-607,-1006,79,385,199,2,1
123372600,4656,-794,-6754,0.059306374,0.998239828,0.005235964,-0.960293686,0.278991106,-21836,-1472,-23486,-805,-594,159,363,213,-6,1
123392600,3396,-1450,-7190,0.080198924,0.996778878,0,-0.965925826,0.258819045,-24558,-3080,-23698,-927,-209,196,373,177,-3,1
123412600,2511,-1601,-8879,0.102792537,0.994702817,-0.003490651,-0.976672278,0.214735327,-26710,-3532,-25634,-1039,759,112,385,191,5,1
123432600,5488,-2706,-6238,0.130526192,0.991444861,0,-0.989015863,0.147809411,-21244,-5766,-18056,-1204,1774,-30,379,161,12,1
123452600,5652,-4880,-2885,0.152985836,0.988228381,0.01396218,-0.991894443,0.127064609,-21066,-9870,-10330,-896,388,-95,393,169,52,1
123472600,7966,-7651,-1387,0.173648178,0.984807753,0.029666244,-0.992546152,0.121869343,-16478,-14954,-6932,-934,49,-2,399,157,56,1
123492604,15217,-4533,3152,0.201077921,0.97957525,0.036643709,-0.988756381,0.149535343,-1880,-8104,1490,-1110,-994,-140,395,143,35,1
123512604,15953,816,8183,0.209618563,0.977783237,0.036643709,-0.980955155,0.194234351,-194,2966,10328,-395,-1401,-268,371,127,25,1
123532604,15505,5000,6687,0.213030386,0.977045574,0.034899497,-0.977783237,0.209618563,-962,11502,6762,-69,-316,-367,365,127,15,1
123552604,15961,8724,8649,0.218143241,0.975916762,0.027921639,-0.979222811,0.202787295,-110,18836,10964,-165,650,-323,365,141,-4,1
123572604,14569,10032,9585,0.195946144,0.980614659,0.027921639,-0.981958713,0.189095443,-2996,21514,13346,1007,977,-493,373,137,47,1
123592604,12727,5899,10422,0.1719291,0.985109326,0.027921639,-0.982287251,0.187381315,-6716,13126,15208,1089,669,-336,383,163,63,1
123612604,14364,-1894,8332,0.152985836,0.988228381,0.045362988,-0.983254908,0.182235525,-3438,-2332,11054,866,617,-495,383,159,69,1
123632604,16293,-1756,5522,0.149535343,0.988756381,0.06104854,-0.985703469,0.16848938,396,-1528,5748,166,849,-588,367,167,86,1
123652604,17375,3121,3107,0.165047606,0.986285602,0.06279052,-0.99074784,0.135715572,2432,8534,1896,-613,1515,-463,397,179,75,1
123672604,21364,9214,11597,0.19765734,0.980271175,0.052335956,-0.993767919,0.111468932,10270,20540,19950,-1268,1529,-248,395,169,103,1
123692604,22579,-2536,-9263,0.194234351,0.980955155,0.069756474,-0.999194395,0.040131793,12584,-2816,-20180,102,2451,-698,403,171,140,1
123712604,24058,257,-2753,0.183951351,0.982935349,0.083677843,-0.999993908,0.003490651,15558,3370,-5658,381,1403,-735,395,175,157,1
123732604,20261,-3347,6935,0.16848938,0.985703469,0.09931975,-0.999993908,-0.003490651,8020,-3486,14318,626,625,-607,397,195,153,1
123752604,15389,-3788,4907,0.170209499,0.985407898,0.118403968,-0.999847695,-0.017452406,-1652,-3798,10708,-1,1010,-677,401,213,172,1
123772604,29948,-1547,6286,0.163325962,0.986572162,0.128795597,-0.999610115,-0.027921639,27542,1206,13752,277,769,-562,403,211,171,1
123792604,32764,13113,8487,0.189095443,0.981958713,0.09931975,-0.999975631,-0.00698126,-32458,29956,17478,-1055,-378,605,399,199,183,1
123812604,17276,2548,2327,0.194234351,0.980955155,0.0975829,-0.99897057,-0.045362988,2108,8550,6324,-253,1821,-242,407,195,195,1
123832604,10102,-12047,-6369,0.152985836,0.988228381,0.125333234,-0.996492859,-0.083677843,-12182,-20584,-10268,1581,1104,-510,407,211,191,1
123852604,10072,-16693,-10146,0.128795597,0.991671162,0.142628934,-0.994880709,-0.101056297,-12126,-29332,-17368,911,142,-50,397,217,181,1
123872604,17756,-12803,-9168,0.128795597,0.991671162,0.152985836,-0.994150964,-0.107999356,3358,-20962,-15118,-64,-51,46,397,229,199,1
123892608,16999,-4531,-5238,0.144356201,0.989525789,0.156434465,-0.993372766,-0.11493715,1946,-3970,-6892,-661,250,-33,407,215,224,1
123912608,17756,3156,-792,0.163325962,0.986572162,0.15126082,-0.992546152,-0.121869343,3548,11638,2432,-799,516,-126,417,215,218,1
123932608,15317,3316,1699,0.166768747,0.985996037,0.147809411,-0.99121554,-0.13225639,-1276,11842,7920,-188,815,-273,415,217,212,1
123952608,15169,-1226,-1454,0.156434465,0.987688341,0.147809411,-0.990023658,-0.140901232,-1598,2464,1738,391,440,-161,403,217,227,1
123972608,14866,-3387,-2678,0.142628934,0.989776231,0.147809411,-0.988228381,-0.152985836,-2180,-1970,-432,562,378,-79,413,219,223,1
123992608,13886,-2210,628,0.133986185,0.9909832,0.147809411,-0.987959866,-0.154710386,-4090,414,6452,346,322,-53,417,221,252,1
124012608,15456,868,6204,0.13225639,0.99121554,0.142628934,-0.989272333,-0.146083029,-934,6638,17624,125,306,-137,385,219,258,1
124032608,15144,1925,5904,0.130526192,0.991444861,0.140901232,-0.989776231,-0.142628934,-1582,8730,16912,88,517,-252,401,215,251,1
124052608,13494,36,-864,0.120136839,0.992757342,0.140901232,-0.988756381,-0.149535343,-4918,4864,3240,415,420,-296,419,225,252,1
124072608,11873,-2243,-1386,0.095845753,0.995396198,0.139173101,-0.988228381,-0.152985836,-8194,66,2218,941,48,-69,405,229,234,1
124092608,13944,-381,3514,0.073238197,0.997314477,0.128795597,-0.99121554,-0.13225639,-4136,3576,11688,1011,-490,90,411,219,256,1
124112608,17762,719,5708,0.05059294,0.998719357,0.121869343,-0.994337944,-0.106264071,3366,5582,15296,956,-600,-42,387,235,277,1
124132608,15815,1708,1166,0.019197442,0.999815712,0.111468932,-0.996637387,-0.081938509,-676,7310,5166,1242,-915,-40,387,233,229,1
124152608,13852,-4555,-4809,-0.019197442,0.999815712,0.113203214,-0.997801468,-0.0662739,-4720,-5584,-7696,1568,-1083,38,401,231,257,1
124172608,10447,-6648,-6109,-0.059306374,0.998239828,0.118403968,-0.998341817,-0.057564027,-11560,-9776,-10716,1536,-951,104,397,219,220,1
124192608,9289,-4561,-2827,-0.087155743,0.996194698,0.120136839,-0.999048222,-0.043619387,-13860,-5462,-4400,1067,-843,189,385,227,229,1
124212608,12419,-3006,828,-0.102792537,0.994702817,0.113203214,-0.999742609,-0.022687334,-7616,-2416,2522,644,-769,394,367,235,202,1
124232608,14986,-832,2916,-0.11493715,0.993372766,0.094108313,-0.999993908,0.003490651,-2540,1514,5948,516,-828,621,365,245,203,1
124252608,15452,2560,-1305,-0.128795597,0.991671162,0.074978727,-0.999815712,0.019197442,-1640,7858,-3290,572,-753,464,375,225,222,1
124272612,17582,-4467,3785,-0.156434465,0.987688341,0.068015291,-0.99912283,0.041875654,2578,-6828,6432,1057,-717,479,365,217,198,1
124292612,26181,-12264,1202,-0.180519145,0.983571471,0.071497444,-0.99853667,0.054078813,19798,-22498,692,954,-509,312,347,211,177,1
124312612,30801,-12535,-6525,-0.190808995,0.981627183,0.073238197,-0.998134798,0.06104854,29076,-22934,-15234,374,-561,285,359,199,167,1
124332612,25416,-8702,-13920,-0.185666615,0.982612797,0.071497444,-0.997801468,0.0662739,18334,-15278,-30468,-282,-786,320,361,199,175,1
124352612,17522,-5248,-12398,-0.173648178,0.984807753,0.071497444,-0.997915618,0.064532308,2544,-8324,-27452,-625,-568,136,363,183,153,1
124372612,18006,-7887,-10326,-0.163325962,0.986572162,0.074978727,-0.998806137,0.04884977,3472,-13580,-22716,-494,92,124,359,191,167,1
124392612,23238,-3428,-7498,-0.146083029,0.989272333,0.073238197,-0.999194395,0.040131793,13924,-4506,-16578,-747,101,87,359,171,173,1
124412612,20255,417,-6032,-0.123601477,0.992331938,0.068015291,-0.99955986,0.029666244,7942,3188,-13320,-987,120,1,367,191,175,1
124432612,16859,3451,-3171,-0.106264071,0.994337944,0.055821505,-0.99970149,0.024432178,1128,8996,-7330,-783,66,155,377,165,185,1
124452612,14392,5620,-462,-0.095845753,0.995396198,0.040131793,-0.99970149,0.024432178,-3826,12958,-1752,-424,36,112,377,165,187,1
124472612,14761,4506,649,-0.095845753,0.995396198,0.026176948,-0.999657325,0.026176948,-3108,10232,512,-65,53,83,385,153,191,1
124492612,15405,2821,216,-0.0975829,0.9952274,0.017452406,-0.99970149,0.024432178,-1834,6454,-340,85,94,81,373,161,204,1
124512612,15634,562,27,-0.102792537,0.994702817,0.012217001,-0.99970149,0.024432178,-1382,1574,-742,143,17,163,371,157,195,1
124532612,15785,-871,133,-0.106264071,0.994337944,0.00698126,-0.999657325,0.026176948,-1078,-1492,-590,161,-25,190,381,151,211,1
124552612,15361,-1952,-1188,-0.109734311,0.993960955,0.00698126,-0.99970149,0.024432178,-1926,-3786,-3270,51,7,144,389,147,184,1
124572612,14653,-3069,-1363,-0.109734311,0.993960955,0.008726535,-0.999742609,0.022687334,-3346,-6018,-3554,-19,11,100,383,133,204,1
124592612,14612,-2251,-1127,-0.107999356,0.994150964,0.008726535,-0.999815712,0.019197442,-3430,-4300,-2938,-55,101,92,387,135,220,1
124612612,15185,-2569,-678,-0.107999356,0.994150964,0.012217001,-0.999876632,0.015707317,-2286,-4886,-1888,-40,135,66,375,145,194,1
124632612,15868,-3076,-399,-0.107999356,0.994150964,0.012217001,-0.999902524,0.01396218,-918,-5808,-1230,-23,111,32,393,141,214,1
124652616,16555,-2401,-972,-0.107999356,0.994150964,0.012217001,-0.999902524,0.01396218,456,-4412,-2372,-67,53,-25,383,141,202,1
124672616,16137,-1626,-1593,-0.106264071,0.994337944,0.01396218,-0.99992537,0.012217001,-378,-2820,-3570,-63,86,-46,377,127,224,1
124692616,15732,-1220,-1404,-0.106264071,0.994337944,0.01396218,-0.999961923,0.008726535,-1192,-2002,-3098,-32,127,-14,367,127,212,1
124712616,16000,-1025,-870,-0.106264071,0.994337944,0.012217001,-0.999986292,0.005235964,-658,-1652,-1918,-7,156,31,383,129,225,1
124732616,16570,-697,-479,-0.107999356,0.994150964,0.010471784,-0.999993908,0.003490651,484,-1020,-1038,1,161,8,385,131,202,1
124752616,16951,-523,-86,-0.107999356,0.994150964,0.010471784,-1,6.12E-17,1246,-680,-146,-5,177,-19,381,143,228,1
124772616,17296,-401,306,-0.107999356,0.994150964,0.010471784,-0.999993908,-0.003490651,1934,-462,734,-13,172,-2,387,145,226,1
124792616,17763,-568,603,-0.107999356,0.994150964,0.00698126,-0.999993908,-0.003490651,2870,-858,1382,-16,139,41,381,141,240,1
124812616,17961,-595,814,-0.107999356,0.994150964,0.005235964,-0.999986292,-0.005235964,3264,-1004,1818,-25,92,82,381,133,239,1
124832616,17696,-517,787,-0.107999356,0.994150964,0.001745328,-0.999993908,-0.003490651,2734,-958,1734,-50,40,103,385,127,233,1
124852616,17362,-249,576,-0.106264071,0.994337944,0,-0.999998477,-0.001745328,2066,-526,1232,-76,-18,101,379,133,240,1
124872616,16758,169,377,-0.106264071,0.994337944,-0.003490651,-0.999998477,0.001745328,856,200,718,-62,-72,100,387,127,238,1
124892616,16260,28,168,-0.104528463,0.994521895,-0.00698126,-0.999975631,0.00698126,-140,-196,146,-44,-125,95,397,117,242,1
124912616,16190,-481,-129,-0.104528463,0.994521895,-0.010471784,-0.999945169,0.010471784,-276,-1334,-608,-34,-135,110,381,129,221,1
124932616,16380,-1058,-414,-0.104528463,0.994521895,-0.012217001,-0.999876632,0.015707317,108,-2594,-1324,-44,-130,105,391,123,219,1
124952616,16551,-1104,-372,-0.104528463,0.994521895,-0.012217001,-0.999847695,0.017452406,452,-2728,-1338,-65,-108,103,369,131,226,1
124972616,16616,-550,-133,-0.102792537,0.994702817,-0.015707317,-0.999742609,0.022687334,582,-1642,-960,-78,-118,82,395,109,257,1
124992616,17255,-885,1491,-0.09931975,0.99505557,-0.015707317,-0.99955986,0.029666244,1866,-2384,2122,-148,-159,64,391,133,234,1
125012616,18394,-1569,2743,-0.094108313,0.995561965,-0.015707317,-0.999262916,0.038387809,4152,-3758,4370,-276,-194,39,381,119,236,1
125032620,19534,-981,3475,-0.085416923,0.996345296,-0.01396218,-0.998719357,0.05059294,6440,-2516,5466,-355,-272,-17,405,113,239,1
125052620,19747,-152,2397,-0.078459096,0.996917334,-0.01396218,-0.998026728,0.06279052,6892,-824,2798,-316,-426,-19,391,115,233,1
125072620,18552,-34,1140,-0.073238197,0.997314477,-0.017452406,-0.996917334,0.078459096,4538,-648,-240,-245,-573,28,385,113,243,1
125092620,16381,295,-857,-0.068015291,0.997684279,-0.019197442,-0.995724698,0.092370587,244,-68,-4818,-253,-681,46,395,115,264,1
125112620,15095,1085,-1830,-0.06279052,0.998026728,-0.024432178,-0.994702817,0.102792537,-2282,1410,-7212,-236,-679,66,387,123,236,1
125132620,14743,1396,-1966,-0.059306374,0.998239828,-0.027921639,-0.993767919,0.111468932,-2950,1884,-7808,-183,-623,64,391,127,211,1
125152620,14823,1002,-2143,-0.057564027,0.998341817,-0.033155178,-0.992757342,0.120136839,-2752,928,-8442,-124,-588,82,395,111,223,1
125172620,14655,209,-3216,-0.055821505,0.998440764,-0.036643709,-0.992114701,0.125333234,-3052,-814,-10822,-73,-550,102,387,97,177,1
125192620,13976,201,-4230,-0.055821505,0.998440764,-0.038387809,-0.991894443,0.127064609,-4390,-912,-12974,5,-503,91,379,105,196,1
125212620,13192,-72,-4432,-0.055821505,0.998440764,-0.040131793,-0.992114701,0.125333234,-5960,-1548,-13346,-32,-398,95,393,115,198,1
125232620,13031,-912,-3528,-0.054078813,0.99853667,-0.041875654,-0.992331938,0.123601477,-6292,-3354,-11422,-122,-332,155,395,109,167,1
125252620,12262,-1205,-4195,-0.045362988,0.99897057,-0.047106451,-0.993372766,0.11493715,-7850,-4102,-12526,-388,-126,248,391,111,184,1
125272620,13430,-1006,-3226,-0.033155178,0.999450216,-0.052335956,-0.995396198,0.095845753,-5590,-3868,-9864,-527,421,273,395,107,167,1
125292620,16047,-1687,-1097,-0.022687334,0.999742609,-0.055821505,-0.996917334,0.078459096,-412,-5388,-4866,-509,557,262,377,103,184,1
125312620,14406,-5654,-1582,-0.010471784,0.999945169,-0.04884977,-0.997052752,0.076719028,-3688,-13322,-5808,-504,-103,118,385,79,208,1
125332620,17331,-5900,-2855,0.008726535,0.999961923,-0.040131793,-0.997185134,0.074978727,2140,-13504,-8326,-886,-156,5,371,95,174,1
125352620,16378,-4373,-470,0.040131793,0.999194395,-0.029666244,-0.997314477,0.073238197,198,-10038,-3390,-1236,-59,-209,379,103,199,1
125372620,16851,-3166,345,0.069756474,0.99756405,-0.024432178,-0.997052752,0.076719028,1142,-7362,-1860,-1269,-222,-106,395,99,198,1
125392620,17403,116,2908,0.09931975,0.99505557,-0.024432178,-0.996345296,0.085416923,2254,-598,3120,-1183,-222,-126,375,85,220,1
125412624,17177,1071,2484,0.111468932,0.993767919,-0.02094242,-0.996345296,0.085416923,1806,1450,2242,-507,118,-230,379,75,207,1
125432624,16510,3633,2216,0.109734311,0.993960955,-0.02094242,-0.997185134,0.074978727,438,6732,2092,-10,559,-251,377,85,225,1
125452624,18306,5509,7527,0.111468932,0.993767919,-0.024432178,-0.997185134,0.074978727,4018,10404,12940,-78,408,-179,369,81,214,1
125472624,16669,8102,9702,0.142628934,0.989776231,-0.040131793,-0.996917334,0.078459096,748,15200,17288,-1310,379,57,377,91,247,1
125492624,17273,3729,-662,0.156434465,0.987688341,-0.040131793,-0.999048222,0.043619387,1926,6308,-2814,-560,1304,-321,389,101,245,1
125512624,20491,2147,759,0.137444546,0.990509463,-0.036643709,-0.99970149,0.024432178,8346,3104,754,724,897,-180,395,107,504,1
125532624,17652,4622,7215,0.133986185,0.9909832,-0.047106451,-0.999194395,0.040131793,2686,7884,13500,136,-117,92,395,89,248,1
125552624,16774,3347,3632,0.133986185,0.9909832,-0.05059294,-0.999194395,0.040131793,938,5162,6176,-37,269,-64,393,83,264,1
125572624,15497,616,1197,0.11493715,0.993372766,-0.045362988,-0.99950656,0.031410759,-1622,-286,1410,737,430,-212,389,79,270,1
125592624,15664,-1540,828,0.088894297,0.996041065,-0.036643709,-0.99955986,0.029666244,-1298,-4452,744,1045,209,-195,389,101,274,1
125612624,16118,-1823,135,0.0662739,0.997801468,-0.029666244,-0.99955986,0.029666244,-398,-4802,-706,866,39,-120,383,99,265,1
125632624,15901,-3528,134,0.05059294,0.998719357,-0.022687334,-0.999450216,0.033155178,-828,-8066,-824,652,-80,-31,381,113,270,1
125652624,16147,-2560,860,0.041875654,0.99912283,-0.017452406,-0.999328394,0.036643709,-340,-5868,568,343,-34,-62,377,115,267,1
125672624,16122,-1961,390,0.040131793,0.999194395,-0.015707317,-0.999390827,0.034899497,-392,-4494,-344,4,115,-49,379,113,283,1
125692624,16103,-1200,405,0.043619387,0.999048222,-0.012217001,-0.999450216,0.033155178,-436,-2916,-250,-153,133,-62,395,107,274,1
125712624,16270,-300,315,0.04884977,0.998806137,-0.012217001,-0.99950656,0.031410759,-104,-1016,-400,-212,81,-67,387,91,261,1
125732624,16281,524,568,0.05059294,0.998719357,-0.012217001,-0.999450216,0.033155178,-82,636,102,-139,50,-38,391,115,271,1
125752624,16396,437,421,0.04884977,0.998806137,-0.012217001,-0.999450216,0.033155178,150,450,-222,87,22,-34,391,97,283,1
125772624,16256,-93,367,0.040131793,0.999194395,-0.012217001,-0.999390827,0.034899497,-130,-596,-384,268,-9,-55,391,107,251,1
125792628,16176,-515,414,0.033155178,0.999450216,-0.010471784,-0.999262916,0.038387809,-288,-1400,-378,319,-48,-71,391,101,291,1
125812628,16073,-1182,-220,0.024432178,0.99970149,-0.00698126,-0.999262916,0.038387809,-492,-2688,-1692,279,0,-73,395,99,273,1
125832628,16026,-1640,-589,0.019197442,0.999815712,-0.001745328,-0.999390827,0.034899497,-590,-3496,-2376,228,68,-69,397,103,235,1
125852628,16019,-1708,-432,0.015707317,0.999876632,0,-0.999450216,0.033155178,-606,-3524,-2008,123,41,-46,391,111,281,1
125872628,16280,-1610,-230,0.01396218,0.999902524,0.001745328,-0.999390827,0.034899497,-82,-3234,-1614,10,-27,-25,377,103,270,1
125892628,16462,-875,-358,0.015707317,0.999876632,0.001745328,-0.999328394,0.036643709,282,-1692,-1892,-89,-29,-18,379,101,261,1
125912628,16176,-167,-168,0.015707317,0.999876632,0.001745328,-0.999328394,0.036643709,-288,-274,-1548,-43,-6,-27,375,109,270,1
125932628,16225,-357,-376,0.015707317,0.999876632,0.001745328,-0.999262916,0.038387809,-190,-658,-2014,19,-22,-32,391,109,274,1
125952628,16289,-707,-484,0.012217001,0.99992537,0.001745328,-0.999262916,0.038387809,-60,-1360,-2278,111,-24,-27,387,121,266,1
125972628,16029,-1057,-395,0.00698126,0.999975631,0.003490651,-0.999262916,0.038387809,-580,-2024,-2106,143,-32,-33,377,111,253,1
125992628,16154,-1171,-211,0.003490651,0.999993908,0.005235964,-0.999194395,0.040131793,-328,-2186,-1754,128,-41,-42,371,121,267,1
126012628,16331,-1172,-228,0.001745328,0.999998477,0.00698126,-0.99912283,0.041875654,28,-2138,-1840,71,-70,-21,395,119,283,1
126032628,16246,-1267,-420,0,1,0.008726535,-0.99912283,0.041875654,-140,-2286,-2246,35,-35,-19,389,113,269,1
126052628,16113,-1368,-760,0,1,0.008726535,-0.99912283,0.041875654,-406,-2438,-2904,10,4,-19,379,115,276,1
126072628,16033,-1328,-687,0,1,0.008726535,-0.999048222,0.043619387,-564,-2354,-2794,8,-21,-20,365,131,263,1
126092628,16278,-1234,-458,-0.001745328,0.999998477,0.010471784,-0.999048222,0.043619387,-72,-2168,-2400,-4,-55,-9,383,103,270,1
126112628,16362,-1177,-124,-0.003490651,0.999993908,0.010471784,-0.99897057,0.045362988,96,-2008,-1740,55,-39,-17,381,103,260,1
126132628,16247,-983,172,-0.005235964,0.999986292,0.010471784,-0.998806137,0.04884977,-132,-1616,-1218,59,-51,-22,387,111,259,1
126152628,16280,-1042,-90,-0.00698126,0.999975631,0.010471784,-0.998806137,0.04884977,-62,-1728,-1792,50,-18,-31,379,107,257,1
126172628,16117,-732,300,-0.010471784,0.999945169,0.010471784,-0.998629535,0.052335956,-386,-1112,-1072,89,-36,-11,387,107,247,1
126192632,16372,-1137,-176,-0.012217001,0.99992537,0.010471784,-0.998629535,0.052335956,126,-1936,-2102,68,-56,-8,395,109,272,1
126212632,16132,-1113,145,-0.015707317,0.999876632,0.010471784,-0.998440764,0.055821505,-352,-1858,-1494,74,-58,-5,383,119,258,1
126232632,16306,-1151,13,-0.017452406,0.999847695,0.010471784,-0.998341817,0.057564027,2,-1940,-1840,71,-66,-7,367,129,278,1
126252632,16262,-1322,-183,-0.019197442,0.999815712,0.012217001,-0.998341817,0.057564027,-82,-2296,-2316,53,-66,5,381,129,259,1
126272632,16218,-1103,-51,-0.02094242,0.999780683,0.012217001,-0.998239828,0.059306374,-168,-1826,-2084,67,-71,9,371,127,255,1
126292632,16225,-1373,-275,-0.024432178,0.99970149,0.01396218,-0.998134798,0.06104854,-152,-2346,-2574,78,-68,6,383,127,258,1
126312632,16137,-1147,-83,-0.027921639,0.999610115,0.01396218,-0.998134798,0.06104854,-324,-1850,-2212,99,-64,-4,383,127,239,1
126332632,16235,-1319,-190,-0.031410759,0.99950656,0.015707317,-0.998134798,0.06104854,-126,-2160,-2442,110,-42,-8,383,133,254,1
126352632,16152,-1360,-165,-0.033155178,0.999450216,0.015707317,-0.997915618,0.064532308,0,0,0,91,-59,-3,367,139,264,1
126372632,16133,-1351,105,-0.036643709,0.999328394,0.015707317,-0.997801468,0.0662739,0,0,0,66,-58,4,383,121,281,1
126392632,16286,-1179,293,-0.036643709,0.999328394,0.015707317,-0.997801468,0.0662739,0,0,0,46,-74,11,371,123,270,1
126412632,16191,-1019,464,-0.036643709,0.999328394,0.015707317,-0.997915618,0.064532308,0,0,0,44,-53,1,371,117,253,1
126432632,16163,-910,176,-0.036643709,0.999328394,0.017452406,-0.997915618,0.064532308,0,0,0,50,-40,-2,395,131,259,1
126452632,16117,-980,153,-0.036643709,0.999328394,0.017452406,-0.997915618,0.064532308,0,0,0,81,-56,3,383,113,241,1
126472632,16203,-1089,171,-0.036643709,0.999328394,0.017452406,-0.997915618,0.064532308,0,0,0,91,-70,9,381,125,254,1
126492632,16167,-1419,74,-0.036643709,0.999328394,0.017452406,-0.998026728,0.06279052,0,0,0,105,-46,16,373,129,262,1
126512632,16261,-1305,61,-0.036643709,0.999328394,0.019197442,-0.998026728,0.06279052,0,0,0,85,-56,12,373,123,287,1
126532632,16183,-1236,142,-0.036643709,0.999328394,0.019197442,-0.998026728,0.06279052,0,0,0,85,-60,6,379,123,262,1
126552632,16218,-1199,74,-0.036643709,0.999328394,0.019197442,-0.998134798,0.06104854,0,0,0,95,-45,6,387,111,271,1
126572636,16162,-1119,131,-0.036643709,0.999328394,0.02094242,-0.998134798,0.06104854,0,0,0,135,-35,3,379,115,270,1
126592636,16198,-1207,162,-0.036643709,0.999328394,0.02094242,-0.998134798,0.06104854,0,0,0,154,-33,-2,389,109,244,1
126612636,16245,-1185,291,-0.040131793,0.999194395,0.022687334,-0.998239828,0.059306374,0,0,0,162,-35,-9,367,127,251,1
126632636,16204,-1470,249,-0.040131793,0.999194395,0.022687334,-0.998341817,0.057564027,0,0,0,153,-22,-14,365,113,257,1
126652636,16105,-1313,295,-0.041875654,0.99912283,0.024432178,-0.998341817,0.057564027,0,0,0,111,-29,-4,375,119,243,1
126672636,16182,-1327,163,-0.041875654,0.99912283,0.024432178,-0.998440764,0.055821505,0,0,0,85,-38,4,367,131,245,1
126692636,16146,-1314,70,-0.041875654,0.99912283,0.026176948,-0.998440764,0.055821505,0,0,0,82,-27,4,381,131,243,1
126712636,16164,-1182,87,-0.041875654,0.99912283,0.026176948,-0.998440764,0.055821505,0,0,0,86,-23,4,389,119,281,1
126732636,16206,-1264,148,-0.041875654,0.99912283,0.026176948,-0.99853667,0.054078813,0,0,0,97,-50,8,371,137,252,1
126752636,16282,-1348,193,-0.041875654,0.99912283,0.026176948,-0.99853667,0.054078813,0,0,0,89,-50,5,389,107,246,1
126772636,16144,-1363,192,-0.040131793,0.999194395,0.027921639,-0.99853667,0.054078813,0,0,0,94,-21,6,375,119,252,1
126792636,16017,-1324,129,-0.040131793,0.999194395,0.027921639,-0.99853667,0.054078813,0,0,0,90,-37,4,387,127,262,1
126812636,16191,-1555,24,-0.040131793,0.999194395,0.027921639,-0.998629535,0.052335956,0,0,0,77,-45,11,379,123,249,1
126832636,16199,-1214,283,-0.040131793,0.999194395,0.029666244,-0.998629535,0.052335956,0,0,0,43,-50,14,387,133,224,1
126852636,16211,-1040,360,-0.038387809,0.999262916,0.029666244,-0.998629535,0.052335956,0,0,0,46,-45,15,383,121,254,1
126872636,16101,-1075,286,-0.036643709,0.999328394,0.029666244,-0.998629535,0.052335956,0,0,0,81,-40,12,389,123,261,1
126892636,16207,-1319,254,-0.036643709,0.999328394,0.029666244,-0.998629535,0.052335956,0,0,0,89,-44,19,381,135,254,1
126912636,16129,-1484,198,-0.036643709,0.999328394,0.029666244,-0.998629535,0.052335956,0,0,0,92,-37,8,375,131,240,1
126932636,16115,-1292,167,-0.036643709,0.999328394,0.029666244,-0.998629535,0.052335956,0,0,0,70,-47,14,385,119,259,1
126952640,16196,-1197,326,-0.036643709,0.999328394,0.031410759,-0.998629535,0.052335956,0,0,0,66,-59,16,377,119,255,1
126972640,16211,-1198,388,-0.036643709,0.999328394,0.031410759,-0.998719357,0.05059294,0,0,0,56,-53,22,385,117,250,1
126992640,16203,-1168,218,-0.036643709,0.999328394,0.031410759,-0.998719357,0.05059294,0,0,0,72,-35,17,375,129,238,1
127012640,16123,-1326,99,-0.036643709,0.999328394,0.031410759,-0.998719357,0.05059294,0,0,0,72,-53,20,391,121,262,1
127032640,16175,-1480,222,-0.036643709,0.999328394,0.033155178,-0.998719357,0.05059294,0,0,0,79,-58,21,375,141,255,1
127052640,16232,-1298,365,-0.036643709,0.999328394,0.033155178,-0.998719357,0.05059294,0,0,0,60,-43,10,375,129,248,1
127072640,16149,-1339,433,-0.036643709,0.999328394,0.033155178,-0.998719357,0.05059294,0,0,0,50,-27,15,379,133,237,1
127092640,16135,-1121,364,-0.036643709,0.999328394,0.033155178,-0.998806137,0.04884977,0,0,0,57,-46,23,373,127,246,1
127112640,16195,-1239,378,-0.036643709,0.999328394,0.034899497,-0.998806137,0.04884977,0,0,0,69,-36,25,381,135,222,1
127132640,16194,-1229,608,-0.036643709,0.999328394,0.034899497,-0.998806137,0.04884977,0,0,0,78,-26,16,383,129,226,1
127152640,16138,-1229,511,-0.036643709,0.999328394,0.034899497,-0.998806137,0.04884977,0,0,0,71,-21,13,381,139,243,1
127172640,16215,-1213,414,-0.036643709,0.999328394,0.034899497,-0.998806137,0.04884977,0,0,0,65,-34,26,397,131,273,1
127192640,16114,-1115,482,-0.036643709,0.999328394,0.034899497,-0.998806137,0.04884977,0,0,0,83,-47,30,385,123,236,1
127212640,16135,-1383,374,-0.036643709,0.999328394,0.036643709,-0.998806137,0.04884977,0,0,0,85,-41,21,377,119,246,1
127232640,16151,-1445,498,-0.036643709,0.999328394,0.036643709,-0.998806137,0.04884977,0,0,0,95,-21,17,387,125,250,1
127252640,16148,-1104,492,-0.036643709,0.999328394,0.036643709,-0.998806137,0.04884977,0,0,0,80,-26,13,393,115,269,1
127272640,16218,-1258,272,-0.036643709,0.999328394,0.036643709,-0.998806137,0.04884977,0,0,0,81,-25,18,385,115,254,1
127292640,16188,-1167,341,-0.036643709,0.999328394,0.038387809,-0.998889875,0.047106451,0,0,0,79,-39,28,395,137,250,1
127312640,16208,-1389,330,-0.036643709,0.999328394,0.038387809,-0.998889875,0.047106451,0,0,0,79,-30,18,375,143,260,1
127332644,16173,-1199,430,-0.036643709,0.999328394,0.038387809,-0.998889875,0.047106451,0,0,0,74,-37,19,375,123,255,1
127352644,16033,-1221,434,-0.036643709,0.999328394,0.038387809,-0.998889875,0.047106451,0,0,0,81,-36,20,383,133,247,1
127372644,16218,-1175,494,-0.036643709,0.999328394,0.038387809,-0.998889875,0.047106451,0,0,0,85,-39,26,367,139,248,1
127392644,16174,-1354,215,-0.036643709,0.999328394,0.040131793,-0.998889875,0.047106451,0,0,0,100,-21,23,377,129,258,1
127412644,16182,-1392,179,-0.036643709,0.999328394,0.040131793,-0.998889875,0.047106451,0,0,0,88,-24,20,389,121,229,1
127432644,16177,-1351,409,-0.036643709,0.999328394,0.040131793,-0.998889875,0.047106451,0,0,0,76,-37,18,395,131,245,1
127452644,16173,-1009,693,-0.036643709,0.999328394,0.040131793,-0.998889875,0.047106451,0,0,0,54,-30,15,379,127,251,1
127472644,16170,-1115,550,-0.036643709,0.999328394,0.040131793,-0.99897057,0.045362988,0,0,0,45,-27,25,363,133,241,1
127492644,16130,-1118,487,-0.036643709,0.999328394,0.040131793,-0.99897057,0.045362988,0,0,0,58,-35,31,399,123,238,1
127512644,16189,-1330,336,-0.036643709,0.999328394,0.041875654,-0.99897057,0.045362988,0,0,0,77,-34,25,387,131,229,1
127532644,16208,-1269,523,-0.036643709,0.999328394,0.041875654,-0.99897057,0.045362988,0,0,0,59,-37,17,375,117,249,1
127552644,16208,-1124,508,-0.036643709,0.999328394,0.041875654,-0.99897057,0.045362988,0,0,0,64,-35,16,387,127,269,1
127572644,16343,-1090,619,-0.036643709,0.999328394,0.041875654,-0.99897057,0.045362988,0,0,0,78,-26,15,361,107,247,1
127592644,16203,-1271,447,-0.036643709,0.999328394,0.041875654,-0.99897057,0.045362988,0,0,0,72,-31,15,385,131,242,1
127612644,16187,-1200,462,-0.036643709,0.999328394,0.041875654,-0.99897057,0.045362988,0,0,0,61,-30,17,397,119,244,1
127632644,16119,-1098,504,-0.036643709,0.999328394,0.041875654,-0.99897057,0.045362988,0,0,0,72,-12,12,369,131,261,1
127652644,16169,-1065,484,-0.036643709,0.999328394,0.043619387,-0.99897057,0.045362988,0,0,0,75,-24,9,379,107,246,1
127672644,16178,-1217,595,-0.036643709,0.999328394,0.043619387,-0.99897057,0.045362988,0,0,0,46,-42,18,375,111,241,1
127692644,16192,-1136,610,-0.036643709,0.999328394,0.043619387,-0.99897057,0.045362988,0,0,0,34,-27,26,369,133,255,1
127712644,16127,-994,652,-0.036643709,0.999328394,0.043619387,-0.99897057,0.045362988,0,0,0,16,-32,28,379,121,261,1
127732648,16182,-1290,567,-0.036643709,0.999328394,0.043619387,-0.99897057,0.045362988,0,0,0,47,-21,20,367,117,228,1
127752648,16155,-995,588,-0.036643709,0.999328394,0.043619387,-0.99897057,0.045362988,0,0,0,36,-28,13,361,107,233,1
127772648,16185,-1144,475,-0.036643709,0.999328394,0.043619387,-0.99897057,0.045362988,0,0,0,54,-21,16,377,119,257,1
127792648,16120,-1147,609,-0.036643709,0.999328394,0.043619387,-0.99897057,0.045362988,0,0,0,44,-32,19,367,127,237,1
127812648,16209,-1190,555,-0.036643709,0.999328394,0.045362988,-0.99897057,0.045362988,0,0,0,32,-28,18,363,125,254,1
127832648,16151,-1180,667,-0.036643709,0.999328394,0.045362988,-0.99897057,0.045362988,0,0,0,40,-9,18,377,123,243,1
127852648,16152,-1105,577,-0.036643709,0.999328394,0.045362988,-0.999048222,0.043619387,0,0,0,44,-13,18,379,127,245,1
127872648,16184,-1081,613,-0.036643709,0.999328394,0.045362988,-0.999048222,0.043619387,0,0,0,37,-21,17,381,133,224,1
127892648,16206,-1031,494,-0.036643709,0.999328394,0.045362988,-0.999048222,0.043619387,0,0,0,51,-13,10,379,131,239,1
127912648,16213,-1161,469,-0.036643709,0.999328394,0.045362988,-0.999048222,0.043619387,0,0,0,43,-16,8,369,123,254,1
127932648,16152,-1131,462,-0.036643709,0.999328394,0.045362988,-0.999048222,0.043619387,0,0,0,64,-5,7,367,117,240,1
127952648,16156,-1151,563,-0.036643709,0.999328394,0.045362988,-0.999048222,0.043619387,0,0,0,74,-23,13,375,135,240,1
127972648,16206,-1193,611,-0.036643709,0.999328394,0.045362988,-0.999048222,0.043619387,0,0,0,57,-24,8,389,143,251,1
127992648,16225,-1071,652,-0.036643709,0.999328394,0.045362988,-0.999048222,0.043619387,0,0,0,58,-11,6,377,113,254,1
128012648,16204,-1041,528,-0.036643709,0.999328394,0.047106451,-0.999048222,0.043619387,0,0,0,52,-13,10,387,133,270,1
128032648,16157,-1023,505,-0.036643709,0.999328394,0.047106451,-0.999048222,0.043619387,0,0,0,70,-13,9,359,135,248,1
128052648,16160,-1235,477,-0.036643709,0.999328394,0.047106451,-0.999048222,0.043619387,0,0,0,88,-23,10,381,121,242,1
128072648,16245,-1295,481,-0.036643709,0.999328394,0.047106451,-0.999048222,0.043619387,0,0,0,68,-25,11,363,133,226,1
128092648,16179,-1181,482,-0.036643709,0.999328394,0.047106451,-0.999048222,0.043619387,0,0,0,63,-20,8,369,109,265,1
128112652,,,,-0.036643709,0.999328394,0.047106451,-0.999048222,0.043619387,,,,,,,,,,1
161412996,15939,-2370,-2630,0.992331938,0.123601477,0.185666615,-0.99955986,0.029666244,0,0,0,52,-19,12,1097,153,366,1
161432996,15900,-2309,-2620,0.992331938,0.123601477,0.185666615,-0.99955986,0.029666244,0,0,0,46,-20,21,1099,155,368,1
161452996,15996,-2388,-2570,0.992546152,0.121869343,0.185666615,-0.99955986,0.029666244,0,0,0,48,-26,17,1111,147,353,1
161472996,15902,-2413,-2585,0.992546152,0.121869343,0.185666615,-0.99955986,0.029666244,0,0,0,49,-26,21,1087,153,375,1
161492996,15969,-2379,-2556,0.992546152,0.121869343,0.185666615,-0.99955986,0.029666244,0,0,0,47,-21,16,1103,157,363,1
161513000,15950,-2217,-2542,0.992546152,0.121869343,0.185666615,-0.99950656,0.031410759,0,0,0,39,-19,15,1109,149,368,1
161533000,15902,-2310,-2610,0.992546152,0.121869343,0.183951351,-0.999610115,0.027921639,0,0,0,57,-15,18,1123,159,380,1
161553000,15939,-2387,-2622,0.992546152,0.121869343,0.183951351,-0.99955986,0.029666244,0,0,0,57,-23,15,1105,151,378,1
161573000,15927,-2356,-2614,0.992757342,0.120136839,0.183951351,-0.99955986,0.029666244,0,0,0,50,-26,18,1109,155,354,1
161593000,15930,-2349,-2606,0.992757342,0.120136839,0.183951351,-0.99955986,0.029666244,0,0,0,64,-13,21,1111,155,361,1
161613000,15931,-2322,-2661,0.992757342,0.120136839,0.183951351,-0.99955986,0.029666244,0,0,0,57,-26,11,1097,151,362,1
161633000,15994,-2396,-2734,0.992757342,0.120136839,0.183951351,-0.999610115,0.027921639,0,0,0,65,-24,21,1119,159,360,1
161653000,15830,-2430,-2640,0.992757342,0.120136839,0.183951351,-0.999610115,0.027921639,0,0,0,53,-23,19,1113,143,358,1
161673000,15929,-2448,-2599,0.992965508,0.118403968,0.183951351,-0.99955986,0.029666244,0,0,0,56,-24,17,1105,149,383,1
161693000,15970,-2394,-2573,0.992965508,0.118403968,0.183951351,-0.99955986,0.029666244,0,0,0,42,-26,25,1117,141,377,1
161713000,15885,-2391,-2621,0.992965508,0.118403968,0.183951351,-0.99955986,0.029666244,0,0,0,44,-14,20,1109,155,377,1
161733000,15990,-2356,-2611,0.992965508,0.118403968,0.183951351,-0.99955986,0.029666244,0,0,0,33,-16,19,1103,149,362,1
161753000,15906,-2419,-2654,0.99317065,0.116670737,0.183951351,-0.99955986,0.029666244,0,0,0,32,-17,16,1095,151,380,1
161773000,15938,-2352,-2581,0.99317065,0.116670737,0.182235525,-0.99950656,0.031410759,0,0,0,33,-7,18,1109,145,371,1
161793000,15967,-2328,-2690,0.99317065,0.116670737,0.182235525,-0.999610115,0.027921639,0,0,0,24,-15,23,1115,161,385,1
161813000,15922,-2266,-2666,0.99317065,0.116670737,0.182235525,-0.99955986,0.029666244,0,0,0,25,-13,27,1107,147,380,1
161833000,15965,-2241,-2858,0.99317065,0.116670737,0.182235525,-0.99955986,0.029666244,0,0,0,29,-20,22,1111,157,382,1
161853000,15932,-2324,-2814,0.99317065,0.116670737,0.182235525,-0.99955986,0.029666244,0,0,0,41,-24,16,1097,155,379,1
161873000,15943,-2376,-2708,0.993372766,0.11493715,0.182235525,-0.99955986,0.029666244,0,0,0,46,-27,16,1105,141,384,1
161893004,15958,-2308,-2758,0.993372766,0.11493715,0.182235525,-0.99955986,0.029666244,0,0,0,46,-31,25,1117,149,393,1
161913004,15828,-2330,-2710,0.993372766,0.11493715,0.182235525,-0.99955986,0.029666244,0,0,0,51,-28,15,1097,145,370,1
161933004,15932,-2351,-2682,0.993372766,0.11493715,0.182235525,-0.99955986,0.029666244,0,0,0,48,-35,20,1097,137,381,1
161953004,15991,-2413,-2567,0.993571856,0.113203214,0.182235525,-0.99950656,0.031410759,0,0,0,38,-31,20,1113,151,371,1
161973004,15915,-2268,-2445,0.993571856,0.113203214,0.182235525,-0.99950656,0.031410759,0,0,0,20,-25,26,1109,139,395,1
161993004,15906,-2264,-2419,0.993571856,0.113203214,0.180519145,-0.99950656,0.031410759,0,0,0,32,-17,17,1105,157,373,1
162013004,15994,-2191,-2418,0.993571856,0.113203214,0.180519145,-0.99950656,0.031410759,0,0,0,46,-30,18,1111,141,386,1
162033004,16056,-2224,-2520,0.993767919,0.111468932,0.180519145,-0.999450216,0.033155178,0,0,0,59,-26,17,1103,139,383,1
162053004,16001,-2275,-2550,0.993767919,0.111468932,0.180519145,-0.999450216,0.033155178,0,0,0,68,-21,7,1107,149,363,1
162073004,15894,-2384,-2637,0.993767919,0.111468932,0.180519145,-0.999450216,0.033155178,0,0,0,72,-16,12,1105,143,400,1
162093004,15842,-2374,-2609,0.993767919,0.111468932,0.180519145,-0.999450216,0.033155178,0,0,0,65,-18,14,1121,151,379,1
162113004,15997,-2526,-2668,0.993960955,0.109734311,0.180519145,-0.999450216,0.033155178,0,0,0,62,-9,14,1103,143,390,1
162133004,15892,-2325,-2645,0.993960955,0.109734311,0.180519145,-0.999450216,0.033155178,0,0,0,45,-4,14,1101,143,349,1
162153004,15915,-2374,-2602,0.993960955,0.109734311,0.180519145,-0.999390827,0.034899497,0,0,0,53,2,14,1107,135,391,1
162173004,16129,-2137,-2664,0.993960955,0.109734311,0.180519145,-0.999390827,0.034899497,0,0,0,56,-15,10,1113,147,368,1
162193004,16014,-2169,-2435,0.993960955,0.109734311,0.180519145,-0.999390827,0.034899497,0,0,0,65,-17,12,1111,151,368,1
162213004,15956,-2238,-2541,0.993960955,0.109734311,0.178802215,-0.999450216,0.033155178,0,0,0,72,-26,11,1111,159,382,1
162233004,16017,-2333,-2538,0.993960955,0.109734311,0.178802215,-0.999450216,0.033155178,0,0,0,65,-21,8,1101,157,377,1
162253004,15958,-2415,-2745,0.994150964,0.107999356,0.178802215,-0.999450216,0.033155178,0,0,0,70,-9,12,1095,131,366,1
162273004,15869,-2395,-2656,0.993960955,0.109734311,0.178802215,-0.99950656,0.031410759,0,0,0,61,-13,9,1093,159,357,1
162293008,15774,-2337,-2604,0.994150964,0.107999356,0.178802215,-0.99950656,0.031410759,0,0,0,49,-22,6,1111,143,395,1
162313008,15953,-2318,-2391,0.994150964,0.107999356,0.178802215,-0.99955986,0.029666244,0,0,0,47,-25,8,1105,161,373,1
162333008,16000,-2263,-2343,0.994150964,0.107999356,0.178802215,-0.99955986,0.029666244,0,0,0,44,-3,9,1099,155,365,1
162353008,15959,-2197,-2602,0.994150964,0.107999356,0.178802215,-0.99950656,0.031410759,0,0,0,51,3,-1,1101,123,360,1
162373008,16064,-2444,-2607,0.994150964,0.107999356,0.178802215,-0.99950656,0.031410759,0,0,0,68,5,6,1101,155,391,1
162393008,15853,-2579,-2813,0.994150964,0.107999356,0.178802215,-0.99950656,0.031410759,0,0,0,75,8,1,1119,147,366,1
162413008,15853,-2426,-2746,0.994150964,0.107999356,0.178802215,-0.99950656,0.031410759,0,0,0,55,16,6,1109,155,388,1
162433008,15821,-2396,-2541,0.994337944,0.106264071,0.178802215,-0.99950656,0.031410759,0,0,0,32,4,11,1099,157,378,1
162453008,16032,-2166,-2541,0.994337944,0.106264071,0.178802215,-0.99950656,0.031410759,0,0,0,27,3,13,1097,153,390,1
162473008,16031,-2174,-2382,0.994337944,0.106264071,0.17708474,-0.999450216,0.033155178,0,0,0,18,7,8,1109,149,375,1
162493008,16006,-1932,-2185,0.994337944,0.106264071,0.17708474,-0.999450216,0.033155178,0,0,0,7,7,7,1097,151,382,1
162513008,16037,-2150,-2041,0.994521895,0.104528463,0.17708474,-0.999450216,0.033155178,0,0,0,-3,2,1,1097,153,369,1
162533008,16049,-2145,-2152,0.994521895,0.104528463,0.17708474,-0.999450216,0.033155178,0,0,0,-38,3,-6,1107,163,380,1
