timestamp,ax,ay,az,roll1,roll2,pitch,yaw1,yaw2,fx,fy,fz,gx,gy,gz,mx,my,mz,step
337938064,1223,92,-530,-0.921110647,-0.371839317,-0.062638386,-0.980878813,0.168152373,0,0,0,82,43,30,869,-13,-750,0
337958064,1234,95,-527,-0.921058897,-0.372138621,-0.062739363,-0.980919175,0.16813504,0,0,0,92,33,20,875,-29,-750,0
337978064,1224,94,-526,-0.920959046,-0.372295739,-0.062842091,-0.980888447,0.168181358,0,0,0,100,47,21,861,-33,-746,0
337998064,1221,86,-518,-0.920889784,-0.372516531,-0.062848606,-0.98089527,0.168210324,0,0,0,114,52,20,863,-19,-766,0
338018064,1216,90,-528,-0.92078121,-0.372737342,-0.06288701,-0.980878964,0.168239271,0,0,0,117,47,30,859,-25,-758,0
338038064,1229,81,-498,-0.92078121,-0.372737342,-0.06288701,-0.980878964,0.168239271,0,0,0,127,27,39,857,-25,-738,0
338058064,1246,67,-504,-0.920755083,-0.372722434,-0.062728241,-0.980859773,0.1682682,0,0,0,133,21,44,855,-33,-747,0
338078064,1252,65,-509,-0.920791373,-0.372771207,-0.062512629,-0.980903,0.168233436,0,0,0,119,49,45,875,-27,-741,0
338098064,1228,84,-485,-0.920805754,-0.372692639,-0.06245754,-0.980894305,0.168233436,0,0,0,108,49,54,865,-31,-769,0
338118064,1255,100,-454,-0.920931686,-0.372344501,-0.06254776,-0.980881857,0.168239271,0,0,0,116,-11,73,867,-21,-753,0
338138064,1264,71,-432,-0.921187967,-0.371902972,-0.062439049,-0.980937727,0.168181358,0,0,0,112,-38,70,869,-31,-756,0
338158064,1255,53,-430,-0.921355529,-0.371382991,-0.062228442,-0.980912035,0.168216025,0,0,0,102,-37,66,845,-23,-748,0
338178064,1285,60,-435,-0.921609757,-0.370926762,-0.062071515,-0.980975583,0.168094348,0,0,0,109,-25,78,851,-25,-755,0
338198064,1291,49,-438,-0.921752064,-0.370328503,-0.061837694,-0.980918268,0.168128949,0,0,0,120,-35,77,845,-19,-741,0
338218064,1286,66,-467,-0.921906978,-0.370107904,-0.061696189,-0.980956227,0.168146238,0,0,0,99,-37,94,851,-29,-771,0
338238064,1277,74,-482,-0.921967324,-0.369950958,-0.061625304,-0.980963916,0.168099886,0,0,0,75,-44,105,851,-31,-740,0
338258064,1268,66,-478,-0.922035068,-0.369794026,-0.061483228,-0.980969811,0.168099886,0,0,0,64,-48,114,841,-33,-787,0
338278064,1257,73,-480,-0.922120364,-0.369715566,-0.061435554,-0.981009331,0.16805353,0,0,0,46,-34,125,841,3,-756,0
338298064,1253,96,-516,-0.922123358,-0.369628731,-0.061954193,-0.980558544,0.170534145,0,0,0,12,-21,129,841,-31,-759,0
338318064,1250,128,-519,-0.921622723,-0.37076045,-0.062386381,-0.980003119,0.173560431,0,0,0,-17,30,125,821,-37,-767,0
338338064,1223,150,-480,-0.921674436,-0.370510254,-0.06307937,-0.979416026,0.176648399,0,0,0,-19,-24,130,819,-43,-785,0
338358064,1223,158,-456,-0.922243332,-0.368802134,-0.064260244,-0.978950841,0.17870177,0,0,0,29,-73,130,837,-45,-762,0
338378064,1233,128,-430,-0.923310271,-0.366109313,-0.064802516,-0.978396865,0.181641903,0,0,0,-16,-119,130,823,-41,-767,0
338398064,1265,155,-411,-0.924769213,-0.362267006,-0.064872038,-0.977605378,0.185712514,0,0,0,-66,-162,122,825,-47,-787,0
338418064,1260,198,-420,-0.926509881,-0.357761139,-0.066565341,-0.976801086,0.189649921,-10190,1068,5042,-72,-164,107,811,-35,-779,0
338438064,1288,236,-418,-0.927994872,-0.353362257,-0.069094997,-0.975935431,0.193137418,-9794,1616,4936,-50,-147,107,817,-61,-776,0
338458064,1289,204,-402,-0.929876868,-0.348213889,-0.071059693,-0.975414623,0.195275269,-9834,1014,5026,2,-173,95,799,-51,-796,0
338478064,1275,170,-362,-0.932108728,-0.34211329,-0.072030179,-0.975021927,0.196967801,-10122,416,5484,18,-190,75,797,-57,-788,0
338498064,1275,147,-356,-0.934623826,-0.334772009,-0.073021774,-0.974535335,0.198760238,-10208,-2,5344,20,-241,96,807,-65,-779,0
338518064,1305,170,-311,-0.938009134,-0.32495887,-0.074721253,-0.973894402,0.201373961,-9830,326,5764,-15,-321,121,787,-55,-787,0
338538064,1381,216,-255,-0.9419477,-0.312697584,-0.078132755,-0.973083353,0.20406585,-8734,972,6294,-6,-375,159,769,-63,-807,0
338558064,1407,164,-173,-0.94668022,-0.297639335,-0.079728799,-0.972367035,0.206737405,-8460,52,7156,-21,-439,133,757,-69,-808,0
338578064,1441,107,-102,-0.952125996,-0.280343989,-0.078927008,-0.971694361,0.210382625,-8084,-874,7752,-76,-502,99,763,-81,-816,0
338598064,1532,64,-21,-0.958070727,-0.260043355,-0.077438633,-0.970544558,0.216277387,-6818,-1544,8424,-165,-588,131,755,-71,-796,0
338618064,1580,7,126,-0.965306066,-0.233304922,-0.073841409,-0.968652179,0.225952541,-6278,-2370,9962,-334,-788,120,741,-77,-815,0
338638064,1526,-46,151,-0.972352657,-0.204222832,-0.068518842,-0.965901051,0.239180889,-7384,-3076,9400,-483,-900,110,725,-85,-833,0
338658064,1489,77,129,-0.978114706,-0.175555864,-0.067081143,-0.961642575,0.256326018,-8188,-980,8074,-635,-929,181,715,-87,-838,0
338678064,1527,309,141,-0.982709361,-0.145230765,-0.074451834,-0.955573445,0.276603719,-7752,2630,7248,-749,-1035,367,707,-111,-857,0
338698064,1385,333,15,-0.985618185,-0.119645871,-0.082089507,-0.949768156,0.294069326,-10144,2790,4294,-638,-961,301,677,-129,-844,0
338718064,1388,396,-47,-0.987417141,-0.100172075,-0.086667667,-0.946128514,0.304332476,-10164,3684,2600,-351,-761,83,637,-111,-825,0
338738064,1448,343,-53,-0.989443026,-0.077545214,-0.0878302,-0.943950824,0.310800057,-9268,2754,1734,-196,-911,-27,643,-131,-870,0
338758064,1443,252,-142,-0.991363058,-0.056845272,-0.083149709,-0.943619307,0.313193452,-9412,1400,-448,-19,-916,-220,607,-133,-854,0
338778064,1434,151,-201,-0.992873857,-0.04099291,-0.074383511,-0.944393195,0.313018128,-9602,12,-1966,103,-773,-320,603,-137,-865,0
338798064,1436,134,-149,-0.994006768,-0.023198366,-0.067005889,-0.945045277,0.312652349,-9604,-24,-1702,117,-829,-258,579,-111,-845,0
338818064,1472,100,15,-0.994829906,-0.001541296,-0.059387718,-0.944513194,0.315808009,-9054,-342,298,-34,-893,-237,561,-121,-856,0
338838064,1346,-27,98,-0.995183365,0.021058908,-0.050077247,-0.941720542,0.325681683,-11080,-2142,934,-319,-888,-219,571,-129,-860,0
338858064,1451,69,8,-0.994847819,0.044412998,-0.043239819,-0.936444975,0.341713486,-9392,-312,-1336,-580,-1007,-223,539,-127,-849,0
338878064,1495,215,20,-0.993218778,0.07418788,-0.041545745,-0.929626923,0.36017134,-8642,2178,-2158,-685,-1325,-162,539,-129,-867,0
338898064,1455,269,167,-0.989865061,0.110911116,-0.042901185,-0.922324505,0.378504222,-9178,3034,-950,-689,-1538,-109,499,-141,-853,0
338918064,1479,273,273,-0.985090798,0.147426283,-0.04628223,-0.91492218,0.395882597,-8640,2980,-420,-662,-1499,-45,495,-137,-844,0
338938064,1551,362,304,-0.979824426,0.177910848,-0.052015121,-0.907631094,0.411707859,-7314,4256,-946,-604,-1281,-15,461,-153,-839,0
338958064,1628,514,339,-0.973706558,0.209139794,-0.052891325,-0.901924655,0.424066991,-5870,6492,-1424,-451,-1335,2,437,-151,-828,0
338978064,1555,506,412,-0.965511002,0.242854845,-0.060822728,-0.89655803,0.434358662,-6788,6340,-1352,-368,-1432,-3,425,-169,-829,0
338998064,1479,465,415,-0.956487315,0.275112581,-0.067665626,-0.893653115,0.439366942,-7700,5442,-2380,-129,-1393,23,415,-181,-807,0
339018064,1503,386,451,-0.946357545,0.307214014,-0.072953875,-0.891949534,0.441945553,-6980,3950,-2868,-22,-1412,49,397,-181,-799,0
339038064,1490,262,492,-0.93503659,0.339809766,-0.076343638,-0.890466288,0.444448277,-6804,1778,-3288,-23,-1460,64,375,-163,-826,0
339058064,1419,208,455,-0.922482837,0.371997235,-0.080365439,-0.888726979,0.447240373,-7514,754,-4972,-52,-1511,117,369,-169,-787,0
339078064,1346,167,488,-0.907897785,0.405378109,-0.085494833,-0.885697857,0.452185517,-8204,-96,-5532,-173,-1594,143,363,-167,-813,0
339098064,1141,157,484,-0.892188929,0.437910162,-0.092028946,-0.881971806,0.458289728,-10984,-488,-6616,-269,-1531,180,357,-167,-791,0
339118064,986,174,377,-0.875230387,0.469594683,-0.099529882,-0.877651768,0.465020327,-12916,-472,-9352,-328,-1507,196,331,-157,-797,0
339138064,872,161,340,-0.856937759,0.500707567,-0.107722097,-0.873371128,0.471246444,-14140,-946,-10964,-328,-1513,214,317,-187,-771,0
339158064,589,187,356,-0.839068517,0.528799813,-0.114940893,-0.869125323,0.477430156,-18082,-766,-11628,-311,-1402,166,311,-179,-755,0
339178064,495,138,284,-0.821736556,0.55429261,-0.120630596,-0.865625788,0.482384523,-19016,-1736,-13616,-232,-1297,134,299,-171,-745,0
339198064,446,-7,240,-0.804379545,0.577586185,-0.12884498,-0.861907758,0.486964118,-19230,-4322,-15086,-284,-1228,212,299,-169,-763,0
339218064,390,-48,235,-0.78611315,0.599982113,-0.139431985,-0.857975045,0.491006089,-19530,-5324,-15900,-334,-1219,289,279,-159,-749,0
339238064,340,97,340,-0.768474216,0.619522994,-0.15236577,-0.8529744,0.495934173,-19750,-3420,-14862,-441,-1127,316,253,-175,-739,0
339258064,482,153,395,-0.754045036,0.633615179,-0.166599546,-0.847885504,0.500251031,-17002,-2984,-14444,-466,-880,355,247,-173,-732,0
339278064,589,191,410,-0.743658885,0.642613595,-0.178614664,-0.841368485,0.507098986,-14952,-2766,-14496,-500,-631,204,233,-185,-712,0
339298064,657,234,500,-0.738673564,0.646693563,-0.184767942,-0.835675839,0.514392598,-13696,-2276,-13192,-347,-342,17,227,-195,-699,0
339318064,606,286,454,-0.73974292,0.645473106,-0.184784463,-0.833224207,0.518398643,-14544,-1444,-13890,-45,20,-53,237,-197,-698,0
339338064,580,359,426,-0.745869502,0.64046561,-0.17712188,-0.833959132,0.519819103,-15164,-28,-14172,279,309,-183,241,-183,-682,0
339358064,270,367,186,-0.755910886,0.632327344,-0.162801592,-0.833820766,0.524645461,-20454,562,-17746,347,484,-483,221,-175,-706,0
339378064,1682,1799,2965,-0.750156837,0.645335777,-0.136080478,-0.833948471,0.53193542,2324,24340,26294,610,-607,-916,227,-157,-695,0
339398064,1948,-86,1124,-0.757013626,0.64299891,-0.105357367,-0.840567891,0.528379334,6356,-4822,-3086,1110,278,-707,195,-129,-684,0
339418064,916,1452,256,-0.784238491,0.613558611,-0.076753488,-0.853184652,0.512710592,-11062,20720,-16002,1461,1697,-320,213,-131,-669,0
339438064,736,335,681,-0.810257323,0.583437383,-0.016472526,-0.88192888,0.467261337,-14830,4820,-8196,3313,1707,-585,239,-135,-708,0
339458064,941,-126,142,-0.833032481,0.548918478,0.041211528,-0.909655213,0.408451796,-12306,-660,-15682,3605,1637,-368,261,-97,-747,0
339478064,1837,-1086,-106,-0.854883812,0.50860855,0.084761549,-0.92985983,0.351865752,1326,-14594,-18336,3107,1701,-138,267,-31,-775,0
339498064,2012,-1338,205,-0.874035703,0.471089033,0.103015499,-0.937185073,0.326455783,3534,-18034,-12148,1397,1607,-49,279,-35,-777,0
339518064,1493,-402,414,-0.892841427,0.431357225,0.114255191,-0.936367119,0.325189274,-5322,-2832,-7666,240,1573,-176,293,-31,-762,0
339538064,1374,-170,374,-0.908410296,0.394262386,0.123857843,-0.933401428,0.330123127,-7742,1334,-7056,37,1494,-387,297,-25,-770,0
339558064,1299,-113,407,-0.921560496,0.360042438,0.129913837,-0.933037752,0.328838205,-9394,2486,-5342,244,1404,-195,321,-47,-756,0
339578064,1395,-234,303,-0.933415273,0.324415622,0.138095065,-0.933837641,0.323185019,-8240,744,-5890,397,1356,-137,325,-27,-772,0
339598064,1369,-267,278,-0.943591438,0.289397977,0.145462539,-0.934537552,0.317726038,-9010,438,-5120,372,1344,-98,331,-37,-758,0
339618064,1423,-223,202,-0.95336519,0.252857512,0.149367561,-0.935262376,0.313904386,-8454,1304,-5162,267,1379,-35,371,-29,-756,0
339638064,1439,-276,190,-0.961891154,0.215076607,0.153026345,-0.936063582,0.309698431,-8496,546,-4084,276,1453,9,363,-23,-758,0
339658064,1368,-366,132,-0.968815934,0.176515019,0.157645483,-0.936560247,0.305768481,-9874,-810,-3744,250,1484,41,379,-33,-772,0
339678064,1374,-412,113,-0.974096827,0.13893114,0.161985433,-0.936346428,0.304203054,-9958,-1430,-2798,146,1474,63,383,-41,-746,0
339698068,1345,-338,133,-0.978328435,0.102516752,0.162651325,-0.935307836,0.306976264,-10564,-180,-1230,-30,1514,135,393,-31,-723,0
339718068,1355,-128,145,-0.982084677,0.066931576,0.157795634,-0.934680067,0.311454408,-10508,3164,174,-86,1539,179,409,-27,-740,0
339738068,1320,-143,157,-0.984307421,0.03183209,0.154121068,-0.934479849,0.313899558,-11144,2790,1564,13,1557,163,421,-43,-751,0
339758068,1281,-229,132,-0.984692337,-0.004715223,0.154162719,-0.935347339,0.311286232,-11786,1346,2380,229,1603,103,423,-15,-742,0
339778068,1257,-156,159,-0.984006034,-0.040345598,0.152585159,-0.936966719,0.307128234,-12134,2514,4040,311,1627,97,435,-33,-752,0
339798068,1279,-216,167,-0.982182451,-0.073167199,0.151196059,-0.93849254,0.303015871,-11720,1466,5276,320,1556,137,453,-27,-716,0
339818068,1244,-277,127,-0.979485486,-0.103923488,0.150091104,-0.938581791,0.303322058,-12192,400,5646,138,1505,204,449,-29,-717,0
339838068,1245,-177,26,-0.976298515,-0.134830901,0.145468204,-0.937175702,0.309899515,-12062,1924,4998,-120,1498,286,469,-39,-713,0
339858068,1273,-37,93,-0.973022446,-0.162006641,0.138837239,-0.93357053,0.323630713,-11474,4046,7034,-408,1483,297,473,-49,-702,0
339878068,1334,-28,44,-0.968613382,-0.191505441,0.131416709,-0.92940351,0.338568797,-10350,3952,7208,-454,1575,352,463,-59,-672,0
339898068,1498,134,111,-0.964785989,-0.216037944,0.119876431,-0.925356008,0.353622012,-7572,6262,9140,-424,1439,414,487,-61,-682,0
339918068,1387,105,282,-0.960830016,-0.237529356,0.109515412,-0.922567422,0.364125039,-9184,5432,12714,-221,1457,366,509,-73,-651,0
339938068,1481,-47,442,-0.957237013,-0.253098205,0.106504084,-0.918841965,0.37452253,-7536,2792,15868,-258,1326,220,511,-71,-649,0
339958068,1662,-29,509,-0.95027983,-0.277377995,0.106340233,-0.915556399,0.382431297,-4558,3018,17244,-232,1065,172,515,-69,-614,0
339978068,1769,-8,575,-0.944056254,-0.297178913,0.108462449,-0.912683522,0.388818881,-2634,3420,18938,-202,867,76,511,-75,-636,0
339998068,1769,270,202,-0.937110789,-0.317735584,0.10971225,-0.911905937,0.390295802,-2410,7910,13646,16,884,44,503,-83,-635,0
340018068,1755,495,-49,-0.930969706,-0.336136673,0.106671583,-0.916533982,0.380088385,-2432,11412,10232,567,735,40,531,-85,-622,0
340038068,1820,291,-157,-0.922303068,-0.361073034,0.099559212,-0.924238808,0.362824108,-1112,7914,9328,917,988,70,517,-89,-616,0
340058068,1904,144,-56,-0.912441464,-0.387167338,0.090373399,-0.931111725,0.34707069,552,5264,11802,886,1064,152,523,-79,-591,0
340078068,2186,211,-87,-0.901106164,-0.41493299,0.079459727,-0.936550215,0.334797179,5440,5980,12214,774,1166,256,525,-79,-594,0
340098068,2177,245,330,-0.894432886,-0.430415366,0.070617033,-0.942579636,0.319254082,5516,6234,19390,863,629,107,527,-81,-586,0
340118068,1982,413,842,-0.896361807,-0.427964006,0.060433837,-0.950821659,0.295786586,2332,8590,27504,1185,-199,5,525,-79,-605,0
340138068,2065,386,1211,-0.907592719,-0.405181328,0.050608329,-0.957931379,0.273632398,3288,7838,32666,1120,-1095,35,537,-83,-597,0
340158068,2239,461,912,-0.92721091,-0.359152028,0.046038606,-0.958606776,0.272108637,5420,8886,26386,232,-2048,218,521,-75,-589,0
340178068,2101,525,330,-0.943847293,-0.313406834,0.046267477,-0.957128806,0.277361523,2668,9916,15574,-115,-1978,140,503,-83,-579,0
340198068,2147,264,-403,-0.953336729,-0.282578591,0.050314334,-0.961758362,0.259672519,3098,5874,2828,758,-1354,-312,509,-65,-606,0
340218068,2169,-227,-979,-0.963684622,-0.244796852,0.054250756,-0.969012316,0.229890248,3106,-1852,-7618,1253,-1665,-416,515,-83,-599,0
340238068,1937,-409,-1124,-0.973642141,-0.200301411,0.061972345,-0.975057811,0.200130938,-940,-4510,-11392,1227,-1936,-514,527,-83,-598,0
340258068,1682,-209,-1052,-0.983928889,-0.139238477,0.068898234,-0.979548167,0.173547028,-5372,-1084,-12224,1128,-2600,-396,523,-61,-613,0
340278068,1619,195,-629,-0.992131051,-0.051647682,0.077146077,-0.979700753,0.169301732,-6674,5652,-8304,233,-3607,-279,535,-61,-638,0
340298068,1406,107,-374,-0.99343689,0.027769398,0.078361117,-0.979060834,0.173360733,-10098,4428,-7116,-104,-3582,-153,527,-49,-628,0
340318068,1385,62,-309,-0.989723112,0.091896992,0.079693952,-0.978991175,0.173441371,-10278,3720,-8218,74,-2999,-125,501,-65,-664,0
340338068,1232,-56,-395,-0.983734105,0.140625609,0.08511238,-0.978342563,0.17482478,-12490,1924,-11324,24,-2531,-198,511,-57,-681,0
340358068,810,-126,-447,-0.972602665,0.200538151,0.091908116,-0.976290166,0.181382172,-18952,996,-13694,-116,-2457,-247,507,-63,-692,0
340378068,826,-243,-332,-0.9594218,0.254596245,0.098226431,-0.974311082,0.188622227,-18248,-670,-13638,-138,-2252,-247,507,-61,-685,0
340398068,608,-79,-378,-0.945546702,0.300665613,0.104392168,-0.972815717,0.193310639,-21274,2154,-15890,-25,-1955,-224,493,-55,-704,0
340418068,244,-39,-410,-0.932166206,0.337972468,0.111655938,-0.971318355,0.196867039,-26654,3030,-17630,47,-1611,-256,479,-45,-715,0
340438068,287,-57,-426,-0.919564594,0.369265877,0.117667563,-0.970297378,0.198303185,-25552,2936,-18912,124,-1379,-177,475,-67,-711,0
340458068,410,-225,-474,-0.910437264,0.391236274,0.118213218,-0.969462015,0.202044783,-23278,266,-20404,-36,-965,-6,495,-39,-727,0
340478068,464,-200,-412,-0.905789139,0.403028874,0.114691938,-0.969061928,0.206107019,-22260,550,-19802,-110,-507,141,481,-73,-720,0
340498068,290,-168,-197,-0.904878989,0.403907619,0.118576438,-0.96944271,0.201873176,-25016,1190,-16388,321,-74,-2,477,-77,-740,0
340518068,339,-83,-236,-0.907958349,0.39102493,0.136670448,-0.971018819,0.181617256,-24336,3138,-16586,1145,422,-274,477,-59,-728,0
340538068,403,-221,-576,-0.91572281,0.359975895,0.166791702,-0.971400775,0.152026912,-23578,1912,-21000,1661,1110,-613,497,-61,-731,0
340558068,1382,9,300,-0.925967535,0.32102867,0.188098419,-0.971433492,0.124386009,-8178,6462,-5806,1495,1300,-584,499,-41,-752,0
340578068,1641,-2320,808,-0.911470834,0.338174891,0.226300476,-0.96748263,0.086014163,-3642,-29758,1866,2067,-1203,-878,447,41,-745,0
340598068,2502,74,-1747,-0.920451166,0.314620759,0.223437357,-0.966263706,0.105458161,9860,8450,27280,-684,1223,-82,473,31,-767,0
340618068,1571,1230,666,-0.931323832,0.276217636,0.228815912,-0.96565281,0.099918496,-5394,27118,1610,373,1604,-71,515,9,-760,0
340638068,1387,329,-345,-0.949637331,0.215334488,0.218188773,-0.968291573,0.0992835,-8758,12748,-12962,26,2109,-7,525,13,-743,0
340658068,1028,-283,411,-0.954547605,0.180731621,0.227173049,-0.967241598,0.087454807,-14890,2830,850,687,1565,-147,551,-7,-732,0
340678068,1581,420,372,-0.961680304,0.157473749,0.212999633,-0.969697896,0.094267739,-6142,14080,878,-147,1138,60,553,-1,-716,0
340698068,1427,158,89,-0.969514072,0.126838487,0.196357291,-0.972961104,0.095827965,-8880,9212,-2784,-13,1227,370,575,-7,-679,0
340718068,1346,-387,64,-0.972493192,0.096591113,0.198166369,-0.973478217,0.085664492,-10352,182,-2186,495,1112,144,571,-11,-695,0
340738068,1621,-605,72,-0.975472417,0.064464962,0.196192158,-0.974318985,0.08070959,-6036,-3290,-956,294,1286,169,559,-15,-698,0
340758068,1485,-694,39,-0.976385938,0.032005828,0.199020375,-0.973507212,0.083588285,-8290,-4852,-426,-31,1353,241,579,1,-698,0
340778068,1430,-433,10,-0.977076441,-0.000616932,0.19749056,-0.972913917,0.093593143,-9168,-588,196,-309,1435,248,583,7,-661,0
340798068,1386,-293,-17,-0.97681484,-0.03688998,0.194567425,-0.972496968,0.103627561,-9848,1646,958,-303,1585,209,585,-17,-658,0
340818068,1283,-259,-13,-0.974890228,-0.073661316,0.193105677,-0.972225314,0.108913271,-11428,2142,2282,-98,1635,154,609,-35,-637,0
340838068,1311,-103,-36,-0.972489722,-0.109982856,0.187350539,-0.972868398,0.113420695,-10874,4564,3120,-52,1634,191,603,-27,-630,0
340858068,1317,-3,-67,-0.96893245,-0.147118807,0.179186889,-0.974386303,0.113164349,-10646,5968,3856,154,1651,183,609,-17,-635,0
340878068,1265,-88,-55,-0.964159669,-0.18193117,0.172105604,-0.976046313,0.109551273,-11324,4302,5228,307,1583,205,615,-21,-607,0
340898068,1183,-235,40,-0.95855782,-0.211620826,0.169008738,-0.976387279,0.111544903,-12446,1722,7820,103,1543,242,631,-19,-611,0
340918068,1227,-361,47,-0.952928366,-0.236124681,0.167669051,-0.97575816,0.118797582,-11560,-426,8762,-86,1400,331,649,-25,-591,0
340938068,1222,-344,-15,-0.946683176,-0.260551251,0.166099108,-0.974574573,0.1302168,-11434,-196,8548,-252,1403,379,633,-35,-576,0
340958068,1189,-318,-44,-0.939135492,-0.286811644,0.165199632,-0.972703386,0.144949419,-11708,206,8948,-390,1516,386,651,-35,-536,0
340978068,1383,-189,-34,-0.931927426,-0.310643287,0.162374617,-0.970740885,0.16075778,-8328,2296,9918,-432,1473,342,649,-35,-549,0
340998068,1346,135,91,-0.927448325,-0.328223784,0.152717287,-0.969498241,0.177133022,-8698,7376,12578,-421,1321,367,649,-79,-527,0
341018068,1413,275,245,-0.925042007,-0.339495474,0.142060954,-0.968234073,0.192496203,-7498,9342,15492,-384,1149,313,645,-55,-508,0
341038068,1432,92,589,-0.925585685,-0.338689426,0.140384794,-0.965296699,0.208082607,-7166,6216,21144,-440,865,141,657,-69,-506,0
341058068,1599,-162,843,-0.915990483,-0.362177916,0.143845425,-0.962648006,0.217840267,-4440,2108,25366,-332,1093,87,633,-57,-467,0
341078068,1841,124,495,-0.906600866,-0.385598022,0.142185893,-0.962152537,0.221246656,-258,6630,20560,-8,1046,187,655,-67,-473,0
341098068,1628,488,116,-0.90430193,-0.396403188,0.125788523,-0.965703797,0.215444094,-3362,12302,15228,480,937,110,649,-81,-481,0
341118068,1673,109,-98,-0.897655055,-0.414136056,0.114983869,-0.9700881,0.200930988,-2486,5674,12330,797,1133,3,663,-81,-469,0
341138068,1802,99,-383,-0.879530683,-0.453645959,0.104256441,-0.975082414,0.181284612,-4,4998,8762,1028,1676,99,649,-83,-454,0
341158068,2165,71,-289,-0.859348135,-0.492562909,0.094195043,-0.978728501,0.166211974,6464,4222,11542,844,1719,128,663,-69,-431,0
341178068,2285,375,-262,-0.840474207,-0.52505032,0.087470195,-0.98163015,0.151807807,9006,8866,13034,749,1470,-3,645,-65,-431,0
341198068,2216,441,252,-0.838395167,-0.530092079,0.076745133,-0.985904168,0.127629068,7978,9572,21408,1171,126,-92,661,-77,-445,0
341218068,2067,441,828,-0.853609551,-0.507050263,0.063200527,-0.98977286,0.101195728,5084,9128,29886,1311,-1206,-30,659,-91,-447,0
341238068,2290,264,1349,-0.881366126,-0.459313214,0.048846422,-0.992933314,0.073849542,7728,5828,-28854,1356,-2319,34,655,-79,-464,0
341258068,2276,341,1134,-0.913312737,-0.393347599,0.041139725,-0.993940651,0.063577717,6444,6806,31098,610,-3008,173,663,-87,-487,0
341278068,2318,137,88,-0.929972118,-0.352185223,0.043519384,-0.994425634,0.052548524,6596,3620,12972,477,-1831,-189,651,-85,-529,0
341298068,2278,231,-596,-0.93828137,-0.328968303,0.049284585,-0.995018054,0.031049665,5692,5314,1254,833,-1053,-449,661,-73,-490,0
341318068,2393,-213,-1105,-0.95104624,-0.28902548,0.056739782,-0.994972777,0.008822029,7102,-1548,-8186,861,-1762,-497,677,-81,-508,0
341338068,2030,-390,-1214,-0.966963824,-0.22894894,0.064576378,-0.994458143,-0.00470956,758,-4120,-11878,544,-2570,-381,675,-57,-527,0
341358068,1834,-164,-1016,-0.982282687,-0.149691859,0.070255153,-0.993890192,-0.01884816,-2900,-318,-11288,615,-3339,-266,679,-71,-557,0
341378068,1857,133,-784,-0.992980935,-0.04295701,0.071108364,-0.99377837,-0.020364195,-2924,4464,-11038,154,-4387,31,655,-51,-615,0
341398068,1492,217,-436,-0.993755098,0.050931586,0.063216766,-0.9948138,-0.010455646,-8744,5738,-8888,-345,-4210,156,655,-57,-658,0
341418068,1172,295,-286,-0.988408428,0.121003686,0.054062753,-0.995402623,-0.001475701,-13634,6772,-8828,-289,-3260,65,641,-47,-663,0
341438068,899,-121,-435,-0.97895667,0.180964893,0.058065839,-0.994926095,-0.000695938,-17734,-32,-12860,102,-2467,-91,629,-53,-698,0
341458068,534,-56,-528,-0.967302367,0.234372228,0.064568986,-0.994471453,-0.002960838,-23180,1222,-16112,245,-2238,-167,605,-43,-705,0
341478068,614,-138,-428,-0.954272065,0.281904167,0.071107736,-0.994033623,-0.007153846,-21468,122,-16072,329,-2027,-140,633,-37,-740,0
341498068,397,-174,-371,-0.941253541,0.321589183,0.077424122,-0.993455665,-0.011943491,-24508,-246,-16464,363,-1721,-114,603,-35,-741,0
341518068,535,-269,-569,-0.930603135,0.350797443,0.08109232,-0.99320671,-0.013323704,-21942,-1648,-20596,200,-1280,-49,595,-31,-769,0
341538068,375,-124,-482,-0.921423214,0.374277582,0.081737199,-0.993172724,-0.010547075,-24200,694,-19974,4,-1023,7,599,-19,-769,0
341558068,603,-248,-366,-0.914936811,0.390778331,0.077682198,-0.993518002,-0.005639851,-20338,-1424,-18660,-146,-714,149,593,-31,-777,0
341578068,508,-226,-187,-0.912303299,0.396264715,0.081254505,-0.99321381,-0.009912657,-21768,-956,-15978,313,-271,8,597,-25,-799,0
341598068,380,-248,-108,-0.913147759,0.391772255,0.092646701,-0.992001276,-0.021466086,-23846,-934,-14566,713,134,-168,595,-33,-759,0
341618068,410,-85,-109,-0.914487116,0.383451268,0.112055583,-0.989461564,-0.037877358,-23414,2306,-14306,1021,258,-396,597,-15,-812,0
341638072,472,-197,-414,-0.916985258,0.370360821,0.13341271,-0.985970069,-0.054807402,-22504,1208,-18758,1069,441,-468,599,-3,-784,0
341658072,1262,481,934,-0.915594682,0.370591786,0.142159863,-0.983205944,-0.076933224,-9850,12752,3046,1299,120,-384,613,7,-794,0
341678072,1568,-1373,420,-0.920710204,0.345487859,0.169569838,-0.974756861,-0.117347205,-5104,-16432,-4586,2057,768,-366,595,71,-812,0
341698072,2781,-1148,317,-0.928785127,0.312607311,0.188008016,-0.969439602,-0.13231902,14046,-12240,-5162,945,1270,-423,601,73,-782,0
341718072,1849,447,737,-0.938833237,0.277152985,0.193161154,-0.969034195,-0.128181487,-1192,13446,2718,3,1547,-176,635,77,-768,0
341738072,1296,721,-278,-0.957693845,0.219750866,0.171708056,-0.97321371,-0.126316525,-10484,17718,-11962,-110,2062,165,659,59,-751,0
341758072,1083,2,226,-0.966267161,0.177261494,0.172215815,-0.971352808,-0.139410473,-14328,5818,-2152,674,1713,-45,669,75,-763,0
341778072,1562,-111,174,-0.971707387,0.142133234,0.173033449,-0.969887443,-0.147413045,-6840,3968,-1894,447,1362,-30,683,85,-746,0
341798072,1509,-238,122,-0.976673648,0.110122055,0.16790215,-0.970347576,-0.150566282,-7868,1672,-1662,191,1292,293,685,83,-729,0
341818072,1113,-364,119,-0.979300115,0.084412538,0.167203274,-0.969934225,-0.15420571,-14314,-512,-842,227,1056,295,697,53,-717,0
341838072,1693,-461,68,-0.98190498,0.053532762,0.163564487,-0.970276669,-0.155357296,-5098,-2036,-660,135,1263,222,703,63,-714,0
341858072,1479,-516,24,-0.982963532,0.019895425,0.164424922,-0.970621169,-0.152793461,-8582,-3058,-266,-15,1390,245,705,65,-687,0
341878072,1405,-466,32,-0.982781032,-0.012828697,0.165554598,-0.971336232,-0.147056047,-9760,-2202,976,-129,1421,215,729,75,-692,0
341898072,1349,-393,-25,-0.981527483,-0.048549358,0.165398096,-0.972301612,-0.14055747,-10610,-1004,1234,-156,1548,232,727,61,-672,0
341918072,1255,-263,50,-0.979665162,-0.081348287,0.163160946,-0.973831574,-0.13291936,-12030,1072,3596,-185,1541,240,751,67,-649,0
341938072,1260,-182,34,-0.976770096,-0.114368873,0.159626074,-0.975515492,-0.124345349,-11842,2312,4442,-211,1585,234,741,63,-622,0
341958072,1277,-66,32,-0.973353393,-0.146536022,0.15342678,-0.97707925,-0.119940223,-11436,4052,5494,-37,1562,224,739,59,-621,0
341978072,1203,-17,40,-0.969306987,-0.177277066,0.145781544,-0.978181411,-0.120523311,-12470,4614,6666,178,1520,216,759,49,-586,0
341998072,1142,-58,84,-0.964603199,-0.20543446,0.138827807,-0.978695692,-0.123978484,-13280,3690,8356,316,1483,213,757,45,-606,0
342018072,1205,-340,83,-0.959096812,-0.230068505,0.137848443,-0.97854333,-0.126305081,-12108,-1076,9158,284,1366,251,765,33,-566,0
342038072,1282,-284,126,-0.954895737,-0.247826824,0.135747533,-0.979861505,-0.118286803,-10712,-198,10470,-118,1193,332,761,61,-575,0
342058072,1276,-144,126,-0.951468628,-0.263122143,0.130574984,-0.982067302,-0.10551239,-10672,1972,10988,-300,1140,391,781,13,-534,0
342078072,1304,-116,143,-0.948174011,-0.276728399,0.125576977,-0.983920965,-0.09359541,-10104,2278,11726,-266,1095,356,767,13,-529,0
342098072,1352,-34,111,-0.944502572,-0.291273275,0.120307524,-0.985604368,-0.083108548,-9204,3474,11672,-232,1108,290,787,31,-534,0
342118072,1331,112,207,-0.94201147,-0.30180754,0.113060167,-0.987313779,-0.072357835,-9422,5670,13620,-239,1031,256,773,19,-503,0
342138072,1419,-1,385,-0.941445535,-0.304389555,0.110912229,-0.988333063,-0.061672458,-7970,3702,16646,-255,815,166,775,21,-521,0
342158072,1571,-60,570,-0.941627631,-0.303810496,0.11119612,-0.988719074,-0.055321531,-5526,2728,19650,-92,744,59,783,3,-480,0
342178072,1609,-2,382,-0.939396434,-0.311812887,0.107175065,-0.988935437,-0.058412112,-4868,3564,16822,300,957,61,777,7,-457,0
342198072,1775,107,-25,-0.93211264,-0.334596593,0.101242563,-0.988812657,-0.069466088,-2150,5026,10568,599,921,153,783,-31,-466,0
342218072,1780,162,-57,-0.928364569,-0.345507452,0.098002374,-0.988001425,-0.082961418,-1946,5800,10416,660,410,6,781,-21,-475,0
342238072,1908,130,32,-0.924211711,-0.357648641,0.093905027,-0.987273484,-0.095566541,242,5152,12230,633,463,48,767,-13,-473,0
342258072,1817,163,252,-0.918131024,-0.374032164,0.088484609,-0.986582339,-0.106470654,-1020,5506,16294,591,666,111,779,-9,-453,0
342278072,2261,307,287,-0.907496437,-0.401226282,0.077748089,-0.985914972,-0.119990297,6430,7460,17750,771,1134,258,783,-15,-450,0
342298072,2241,512,402,-0.899008784,-0.421771202,0.065526515,-0.984040396,-0.140263835,6388,10340,20262,1054,838,178,779,-13,-420,0
342318072,2079,452,702,-0.898807861,-0.423799098,0.053278503,-0.980061259,-0.169337727,3802,8978,25130,1387,0,12,769,-19,-440,0
342338072,1996,420,1115,-0.907482449,-0.40650397,0.041037982,-0.974519122,-0.201186458,2186,8066,31176,1495,-858,-27,775,-35,-436,0
342358072,2291,165,1107,-0.925059512,-0.365996141,0.033252429,-0.969392253,-0.225638876,6322,3732,29734,1153,-1840,-34,805,-15,-462,0
342378072,2126,233,543,-0.94239207,-0.318831118,0.035239179,-0.968619984,-0.228361527,3112,4886,19164,178,-2050,-46,793,-19,-486,0
342398072,2270,156,-492,-0.950388269,-0.293904925,0.041809555,-0.963911073,-0.246595088,5168,3868,1768,738,-1105,-420,805,-13,-469,0
342418072,2189,-268,-991,-0.959927287,-0.25957904,0.05076051,-0.956967264,-0.270154143,3550,-2622,-7330,955,-1499,-557,805,31,-484,0
342438072,1902,-327,-1105,-0.969916351,-0.218113489,0.058964843,-0.95045726,-0.290608421,-1370,-3298,-10512,861,-1792,-462,811,41,-542,0
342458072,1606,-303,-870,-0.981109174,-0.159149939,0.065142924,-0.945086675,-0.306134943,-6486,-2712,-8668,704,-2491,-301,819,53,-562,0
342478072,1654,-65,-659,-0.991397202,-0.071634907,0.068210196,-0.946102208,-0.302172812,-6088,1198,-8130,-80,-3585,-30,817,45,-595,0
342498072,1758,4,-619,-0.994118929,0.025290143,0.06695364,-0.94946325,-0.292025829,-4524,2262,-10660,-338,-3930,136,791,67,-630,0
342518072,1465,232,-253,-0.990172449,0.102380797,0.057520576,-0.955974285,-0.273169676,-9024,5804,-7612,-742,-3426,148,781,55,-686,0
342538072,1046,279,-205,-0.983855361,0.156442922,0.047376996,-0.960937561,-0.257753434,-15472,6308,-8700,-584,-2588,37,773,83,-700,0
342558072,762,125,-322,-0.973688759,0.210397825,0.048470468,-0.962278359,-0.251491703,-19746,3590,-12024,-139,-2219,-20,753,73,-733,0
342578072,765,15,-385,-0.962240029,0.257971382,0.050599938,-0.962828588,-0.24901619,-19312,1900,-14600,19,-1992,-34,741,75,-760,0
342598072,623,-136,-366,-0.950126734,0.299404081,0.053213274,-0.962494953,-0.249472292,-21186,-430,-15654,151,-1761,-24,699,91,-788,0
342618072,405,-104,-423,-0.939481888,0.331385521,0.054963578,-0.962089974,-0.250745224,-24314,138,-17624,170,-1383,22,691,67,-793,0
342638072,382,-110,-443,-0.930193964,0.357019683,0.054591155,-0.961608451,-0.252893724,-24376,32,-18786,176,-1123,115,683,75,-806,0
342658072,283,68,-301,-0.923946004,0.373900883,0.047990353,-0.960637026,-0.257676274,-25754,2662,-17068,186,-749,395,671,75,-836,0
342678072,412,-16,-99,-0.920652019,0.381863859,0.048818574,-0.955387248,-0.276019724,-23582,1344,-14096,829,-395,332,673,87,-822,0
342698072,398,-346,-197,-0.921074312,0.379283708,0.060150642,-0.947137494,-0.301021148,-23822,-3562,-15578,1261,36,51,677,97,-837,0
342718072,382,-349,-375,-0.923931258,0.368112443,0.08087822,-0.938544007,-0.321833793,-24176,-2934,-18058,1261,397,-369,689,111,-836,0
342738072,364,-358,-745,-0.925649781,0.357519727,0.105230758,-0.931427103,-0.335311029,-24514,-2284,-23634,1026,361,-630,687,111,-833,0
342758072,919,-28,137,-0.93217203,0.333215341,0.124847359,-0.923185132,-0.350817241,-15852,3636,-8722,1039,936,-431,685,129,-822,0
342778072,1630,-1953,-381,-0.929260138,0.329407834,0.15351451,-0.906916501,-0.380374262,-4388,-26232,-16878,1771,-88,-572,683,171,-833,0
342798072,2132,-298,-310,-0.939210296,0.298126101,0.156187196,-0.907704026,-0.37741334,3326,332,-14724,16,1362,-68,685,169,-823,0
342818072,1907,537,833,-0.948108951,0.260088606,0.169582244,-0.900501344,-0.38897704,-570,14126,4812,774,1508,-298,711,167,-802,0
342838072,1481,183,-98,-0.96219535,0.207076516,0.162438099,-0.900230845,-0.392927634,-7750,8498,-8594,198,1896,54,721,167,-795,0
342858072,1128,-198,59,-0.969703849,0.161138495,0.168234151,-0.894591007,-0.402722552,-13732,2316,-4428,573,1706,-69,751,159,-759,0
342878072,1323,5,288,-0.974935273,0.132099716,0.162601118,-0.894977421,-0.404170264,-10772,5548,366,158,1294,109,759,191,-764,0
342898072,1848,-138,55,-0.979648307,0.10218985,0.154870306,-0.89537181,-0.40624522,-2542,2850,-2462,132,1226,393,769,159,-768,0
342918072,1431,-280,120,-0.9830094,0.068552252,0.151403459,-0.895461926,-0.407386774,-9328,452,-316,127,1379,233,767,167,-747,0
342938072,1393,-367,117,-0.984590292,0.036224168,0.151384469,-0.89570017,-0.406757185,-10006,-1030,738,76,1383,202,787,165,-729,0
342958072,1392,-518,81,-0.984954871,0.002470789,0.152824449,-0.895911902,-0.40589151,-10044,-3494,1272,66,1446,262,807,183,-690,0
342978072,1380,-540,14,-0.983868767,-0.032543752,0.155354891,-0.896701919,-0.403075652,-10204,-3778,1342,-8,1501,235,795,163,-697,0
342998072,1293,-291,75,-0.982131422,-0.067527311,0.154453934,-0.89851927,-0.39946118,-11508,322,3546,-37,1606,199,799,155,-686,0
343018072,1283,-328,77,-0.978839757,-0.101874264,0.155524835,-0.899177514,-0.397458557,-11560,-264,4742,51,1618,153,817,169,-661,0
343038072,1231,-27,128,-0.975875432,-0.13416319,0.148791666,-0.901504626,-0.394784281,-12244,4544,6688,23,1634,212,825,163,-642,0
343058072,1308,-14,111,-0.972095668,-0.165331379,0.141138384,-0.901957847,-0.396494545,-10880,4508,7446,222,1575,215,829,157,-622,0
343078072,1328,-168,70,-0.966893785,-0.196015539,0.136685208,-0.900462411,-0.401345002,-10396,1786,7798,374,1543,198,837,137,-584,0
343098072,1236,-260,25,-0.960932795,-0.224470006,0.134475849,-0.899490066,-0.404332697,-11678,160,8000,301,1457,217,845,149,-585,0
343118072,1231,-209,28,-0.955605717,-0.248138715,0.129932282,-0.901980394,-0.400195146,-11566,862,8850,8,1339,342,853,153,-557,0
343138072,1309,-283,1,-0.949973278,-0.270290166,0.126769888,-0.905882258,-0.39251066,-10132,-474,9138,-135,1298,390,853,141,-551,0
343158072,1257,-276,-63,-0.943627225,-0.29266596,0.123675149,-0.909812069,-0.384331901,-10758,-466,8824,-150,1288,404,859,139,-534,0
343178072,1302,-194,7,-0.938444735,-0.309908945,0.120641441,-0.914494844,-0.374152321,-9832,808,10568,-240,1166,358,845,113,-486,0
343198072,1428,-124,162,-0.935461598,-0.31960866,0.118178781,-0.919886798,-0.361613512,-7670,1900,13470,-342,994,305,881,123,-489,0
343218072,1394,129,222,-0.934912721,-0.323090453,0.112814495,-0.925817801,-0.348056206,-8160,5940,14574,-410,778,241,869,111,-490,0
343238072,1454,171,535,-0.936526988,-0.319218613,0.110253476,-0.931143261,-0.334443891,-7202,6532,19600,-426,653,119,851,83,-491,0
343258072,1610,25,585,-0.929430151,-0.338350819,0.112781338,-0.932693811,-0.329339672,-4700,4090,20450,-140,853,47,861,103,-464,0
343278072,1753,204,257,-0.923091173,-0.356139779,0.109457358,-0.932204068,-0.331801683,-2202,6844,15782,239,754,163,875,97,-435,0
343298072,1706,334,80,-0.91873474,-0.368461782,0.104600386,-0.928818103,-0.34250576,-2814,8768,13356,595,479,86,859,91,-443,0
343318072,1757,81,8,-0.91281721,-0.384497002,0.098487171,-0.924138384,-0.356689507,-1802,4522,12730,752,627,70,859,105,-435,0
343338072,1955,-40,41,-0.90461402,-0.405178169,0.08963821,-0.91950829,-0.370452316,1628,2296,13940,781,844,164,849,97,-408,0
343358072,2202,248,168,-0.890642926,-0.436357731,0.080929675,-0.916580781,-0.379370326,6034,6620,17002,594,1355,229,853,81,-414,0
343378072,2273,386,478,-0.877519483,-0.463539014,0.072812245,-0.911952147,-0.392084876,7604,8562,22846,733,1177,117,859,95,-401,0
343398072,2090,459,695,-0.873889856,-0.471614815,0.063486493,-0.904612765,-0.41011253,4798,9426,26578,972,299,30,853,93,-384,0
343418072,1976,367,1014,-0.884105399,-0.453664247,0.05222781,-0.894852728,-0.432246346,2634,7586,31102,1179,-903,17,859,87,-394,0
343438072,2187,64,1171,-0.905204456,-0.411171587,0.044058065,-0.885911964,-0.450939635,5306,2470,32242,1000,-1976,4,869,87,-404,0
343458072,2345,221,683,-0.92857348,-0.35573131,0.043933128,-0.886931509,-0.448896885,7062,4976,22624,15,-2450,115,857,97,-458,0
343478072,2109,184,-170,-0.936804518,-0.332963113,0.049427539,-0.880672598,-0.460449094,3038,4564,8198,520,-1016,-322,857,97,-454,0
343498072,2278,-90,-913,-0.945142135,-0.307419898,0.058149865,-0.872743607,-0.47433427,5468,468,-4526,594,-1137,-474,851,91,-476,0
343518072,1957,-410,-1204,-0.955917522,-0.270575821,0.065531192,-0.865222871,-0.486718804,-30,-4412,-10378,573,-1604,-386,865,109,-479,0
343538072,1675,-105,-1071,-0.969685523,-0.215114409,0.072013549,-0.861174777,-0.493004549,-5004,682,-10056,325,-2356,-256,875,121,-493,0
343558076,1664,-54,-632,-0.984274449,-0.132483104,0.076870253,-0.863666127,-0.487847764,-5688,1658,-5704,-165,-3409,-81,845,133,-561,0
343578076,1643,221,-543,-0.992571287,-0.037719999,0.07978842,-0.86743211,-0.480813641,-6312,6154,-7376,-235,-3863,-16,849,139,-587,0
343598076,1603,182,-369,-0.993323809,0.042768355,0.073786099,-0.874450365,-0.469704183,-6934,5508,-7510,-465,-3574,99,825,143,-657,0
343618076,1220,258,-218,-0.98958618,0.102763256,0.066397543,-0.881753219,-0.456904236,-12902,6564,-7082,-520,-2734,5,821,149,-666,0
343638076,907,79,-328,-0.981750593,0.16082117,0.068130334,-0.884159647,-0.451468743,-17692,3500,-10490,-127,-2369,-29,825,161,-716,0
343658076,786,-17,-415,-0.971765148,0.212066453,0.073067962,-0.886020532,-0.446962062,-19290,2126,-13572,-58,-2117,-162,773,153,-739,0
343678076,607,-19,-330,-0.960618094,0.257890843,0.075655841,-0.886799023,-0.445143647,-21784,2176,-13718,45,-1924,-49,767,151,-785,0
343698076,383,-34,-357,-0.949465299,0.296111014,0.077839678,-0.886017179,-0.446196411,-24998,2008,-15408,176,-1632,1,757,173,-794,0
343718076,257,-111,-378,-0.938867267,0.327764057,0.080741456,-0.884606849,-0.448405541,-26664,870,-16784,235,-1375,-7,741,181,-803,0
343738076,279,-118,-337,-0.930039406,0.352616167,0.079631174,-0.8836869,-0.450553799,-26018,722,-16944,172,-1090,148,731,183,-807,0
343758076,545,-194,-254,-0.924456706,0.367646467,0.077194656,-0.87995098,-0.458143998,-21578,-576,-16110,385,-689,289,731,181,-804,0
343778076,602,-342,-188,-0.922345042,0.371622294,0.083343712,-0.872536868,-0.470965989,-20596,-2742,-15184,749,-237,63,735,185,-832,0
343798076,443,-385,-187,-0.922124075,0.368131971,0.099540794,-0.863780575,-0.483666623,-23134,-2902,-15054,924,66,-309,731,197,-827,0
343818076,397,-131,-337,-0.92151433,0.362532226,0.123014755,-0.855238762,-0.493333373,-23852,1928,-17268,926,139,-629,733,199,-826,0
343838076,253,-340,-948,-0.925695308,0.341753228,0.14813002,-0.84218996,-0.508524196,-26298,-600,-26358,1210,742,-598,741,219,-842,0
343858076,2650,1317,4861,-0.915087458,0.361530706,0.167010105,-0.830638058,-0.521741072,12406,26524,398,1028,-1035,-396,739,227,-820,0
343878076,2441,-1637,-586,-0.93513836,0.29163073,0.190027611,-0.805141421,-0.552783662,8362,-19990,-18894,1941,2700,-276,701,289,-837,0
343898076,1988,433,2085,-0.942981537,0.25889086,0.197995061,-0.801377738,-0.555394443,896,13376,24884,357,1352,-190,739,281,-816,0
343918076,1617,299,-29,-0.953983292,0.213490151,0.19889908,-0.796426851,-0.562265875,-5280,11612,-7656,491,1582,-324,747,281,-836,0
343938076,1184,138,253,-0.964378545,0.169254314,0.190084346,-0.792169729,-0.571073243,-12626,8692,-1438,494,1841,144,761,277,-780,0
343958076,1383,-333,171,-0.968698597,0.133044761,0.196339331,-0.788154094,-0.574546311,-9628,1054,-1620,340,1454,-129,777,285,-763,0
343978076,1276,174,268,-0.974094113,0.110198161,0.18236156,-0.794017624,-0.570844788,-11468,9028,780,-162,1123,234,777,287,-717,0
343998076,1618,-215,63,-0.978082208,0.075492676,0.177953626,-0.793727612,-0.572633209,-6170,2378,-1472,147,1406,241,795,289,-720,0
344018076,1411,-518,169,-0.979068875,0.042032421,0.18344172,-0.791312329,-0.574508287,-9548,-2470,1402,229,1435,61,815,285,-718,0
344038076,1362,-509,147,-0.979220726,0.010522828,0.18640461,-0.792678988,-0.571594262,-10340,-2230,2108,-11,1429,155,823,279,-703,0
344058076,1379,-466,110,-0.97889474,-0.020524099,0.18677155,-0.797058122,-0.565411026,-10048,-1504,2538,-184,1451,232,831,271,-676,0
344078076,1312,-426,73,-0.977334946,-0.052432636,0.187962786,-0.802189887,-0.557665745,-11064,-812,3002,-249,1510,195,839,261,-651,0
344098076,1284,-212,38,-0.975246746,-0.086773584,0.185683377,-0.807066042,-0.551513376,-11412,2682,3578,-191,1615,165,851,273,-652,0
344118076,1295,-118,79,-0.97211404,-0.120628247,0.182112026,-0.810530392,-0.547436098,-11114,4134,5410,-69,1660,130,855,279,-608,0
344138076,1281,-21,109,-0.968827445,-0.152382467,0.175190226,-0.813453663,-0.545425225,-11200,5526,6976,30,1617,180,873,269,-579,0
344158076,1262,68,48,-0.964960486,-0.184507597,0.164760485,-0.816446051,-0.544248346,-11364,6670,7038,66,1614,247,865,263,-571,0
344178076,1252,128,88,-0.960650802,-0.214245457,0.152650679,-0.818013711,-0.545333499,-11360,7272,8706,192,1568,247,869,251,-552,0
344198076,1260,-140,47,-0.954505654,-0.24395092,0.145637712,-0.817382285,-0.548122706,-11056,2548,9028,312,1562,278,861,255,-529,0
344218076,1216,-403,-35,-0.946273049,-0.27379206,0.145249766,-0.817929676,-0.54729091,-11524,-1876,8662,165,1561,298,877,245,-524,0
344238076,1296,-429,-27,-0.938088827,-0.300001193,0.146417032,-0.822724571,-0.539934533,-9956,-2256,9670,-149,1498,331,875,245,-501,0
344258076,1387,-277,-6,-0.931214776,-0.321166316,0.144429573,-0.831741679,-0.526421919,-8240,230,10742,-424,1387,413,899,227,-475,0
344278076,1325,-114,57,-0.926411025,-0.336156193,0.141222932,-0.841322156,-0.512090759,-9028,2834,12286,-473,1198,361,913,229,-462,0
344298076,1526,-181,184,-0.925517892,-0.339326937,0.138900769,-0.849719113,-0.49861886,-5760,1648,14486,-403,768,354,907,223,-454,0
344318076,1503,6,272,-0.92675289,-0.33641118,0.138296187,-0.85953874,-0.481935384,-6136,4734,15838,-603,584,205,903,215,-422,0
344338076,1549,115,298,-0.927923089,-0.33415773,0.135745328,-0.865955455,-0.471064691,-5426,6458,16182,-345,580,106,905,201,-435,0
344358076,1713,265,412,-0.924463274,-0.343482072,0.135365489,-0.867715979,-0.467795083,-2890,8666,17848,-37,423,137,909,205,-417,0
344378076,1626,612,279,-0.921375498,-0.351845481,0.134693173,-0.865624264,-0.471808016,-4178,14192,15992,281,333,35,887,205,-439,0
344398076,1690,146,179,-0.923548171,-0.349946428,0.124605018,-0.859740598,-0.485112015,-3044,6600,14738,772,355,-5,895,209,-422,0
344418076,1741,86,-47,-0.918295445,-0.366552116,0.114578529,-0.849818496,-0.504476609,-2244,5124,11268,1069,599,129,897,209,-390,0
344438076,1806,-57,67,-0.911289953,-0.386701459,0.103692811,-0.841496255,-0.520551518,-970,2482,13748,942,781,200,883,207,-389,0
344458076,2110,94,121,-0.897892395,-0.41898709,0.092287204,-0.835299315,-0.532220114,4322,4526,15684,777,1368,273,897,193,-379,0
344478076,2127,334,376,-0.884456575,-0.448691636,0.081261349,-0.826577038,-0.547438055,5038,8006,20730,933,1257,162,889,199,-362,0
344498076,1967,444,636,-0.878594419,-0.461957717,0.068936922,-0.812692301,-0.569329072,2672,9364,25326,1261,503,29,885,193,-341,0
344518076,1971,360,980,-0.887258371,-0.447065221,0.055059996,-0.794649938,-0.595494019,2448,7566,30350,1504,-787,-21,867,195,-359,0
344538076,2191,109,1142,-0.905569071,-0.410407634,0.044933846,-0.776866239,-0.619324256,5360,3218,31750,1363,-1736,-82,895,193,-354,0
344558076,2373,286,693,-0.928277586,-0.356351171,0.046181015,-0.776622865,-0.619484279,7522,6092,22802,89,-2390,21,885,201,-419,0
344578076,2065,66,-85,-0.9389883,-0.325721392,0.05648635,-0.773665268,-0.622268446,2260,2908,9326,107,-1334,-378,903,211,-418,0
344598076,1915,35,-990,-0.945181217,-0.305783214,0.065372757,-0.765121799,-0.631859677,-338,2704,-5812,476,-888,-438,917,215,-438,0
344618076,1942,-149,-1131,-0.956314407,-0.268665405,0.068872015,-0.755389623,-0.643103899,-280,-126,-9274,634,-1624,-239,911,209,-465,0
344638076,1660,-171,-1118,-0.968511268,-0.220258297,0.072160814,-0.746848062,-0.652544724,-5200,-370,-10642,566,-2074,-187,915,231,-471,0
344658076,1636,-85,-640,-0.981579404,-0.152002277,0.074508188,-0.746713877,-0.65238706,-6028,1086,-5214,81,-2836,-23,889,243,-541,0
344678076,1594,296,-597,-0.991496785,-0.063869121,0.075740988,-0.747325201,-0.651698597,-7050,7222,-7392,54,-3621,26,899,231,-565,0
344698076,1493,44,-354,-0.993950142,0.017081078,0.07420983,-0.752449,-0.646385321,-8732,3238,-6406,-229,-3588,23,885,267,-629,0
344718076,1277,165,-196,-0.991495367,0.078059776,0.069108405,-0.759547599,-0.638375128,-12070,5096,-5878,-351,-2731,24,889,261,-684,0
344738076,1156,47,-247,-0.987184491,0.124431213,0.067072326,-0.762797099,-0.635132141,-13828,3052,-8332,-116,-2296,11,839,263,-706,0
344758076,865,-71,-240,-0.979245201,0.174978465,0.069787542,-0.76472427,-0.631870061,-18280,1152,-9552,-28,-2072,-60,831,245,-746,0
344778076,846,-67,-293,-0.970263699,0.219735606,0.071397747,-0.765789686,-0.630537812,-18276,1268,-11878,43,-1863,-6,801,255,-764,0
344798076,698,-99,-326,-0.960286688,0.259931099,0.07270299,-0.765425544,-0.630722109,-20316,800,-13722,129,-1692,24,781,259,-789,0
344818076,704,-136,-231,-0.95039916,0.294088488,0.073998987,-0.764781337,-0.631331809,-19890,248,-13326,148,-1457,32,781,265,-802,0
344838076,669,-266,-290,-0.940571057,0.32476983,0.072795699,-0.76672365,-0.629158938,-20126,-1870,-15278,-28,-1310,81,791,267,-833,0
344858076,639,-204,-174,-0.932276476,0.349094963,0.067521848,-0.768904041,-0.627003634,-20332,-1050,-14222,-89,-1045,232,755,277,-854,0
344878076,440,15,-70,-0.926710976,0.364739312,0.062506164,-0.76658925,-0.630459704,-23330,2288,-13072,182,-695,322,745,257,-856,0
344898076,480,-91,-43,-0.92393101,0.371541917,0.064003399,-0.757497609,-0.641165765,-22600,642,-12862,650,-342,226,743,253,-854,0
344918076,368,-239,12,-0.925086586,0.366314879,0.075896372,-0.743979929,-0.65541311,-24432,-1336,-11808,1018,154,-83,745,271,-873,0
344938076,365,-93,-119,-0.928648645,0.352602741,0.094487374,-0.728007948,-0.670668164,-24600,1606,-13454,1205,491,-311,751,281,-851,0
344958076,339,-108,-480,-0.931475846,0.337774377,0.117654695,-0.713168671,-0.682804022,-25110,2122,-18742,1150,518,-544,743,311,-861,0
344978076,1284,297,1301,-0.934674585,0.32028587,0.139058798,-0.695534218,-0.696826614,-10094,9298,10326,1243,594,-449,759,309,-855,0
344998076,2183,-2672,-639,-0.935570918,0.304060802,0.166539475,-0.667156942,-0.718077734,4252,28222,-20176,1808,420,-539,705,369,-836,0
345018076,1672,-517,-641,-0.94624814,0.269223301,0.16577401,-0.671557926,-0.71433717,-4264,-2862,-19074,-135,1531,35,719,383,-831,0
345038076,1897,577,439,-0.954012657,0.228460317,0.18082346,-0.65184203,-0.728582788,-932,15130,-448,1206,1533,-273,749,375,-814,0
345058076,1356,-260,144,-0.963766456,0.176774077,0.186178389,-0.640976027,-0.736874171,-9894,1906,-3544,668,1976,-27,773,377,-797,0
345078076,1106,-565,220,-0.96741036,0.135059278,0.201270856,-0.627303567,-0.744716305,-14078,-2738,-848,781,1664,-119,787,395,-767,0
345098076,1516,-114,311,-0.971156109,0.108525267,0.198860533,-0.633183185,-0.740431273,-7560,4772,1518,-166,1272,-13,797,397,-768,0
345118076,1361,2,166,-0.975666493,0.081481393,0.188791734,-0.641616857,-0.735773394,-10172,6368,30,-292,1246,216,801,389,-742,0
345138076,1629,-121,81,-0.97818746,0.050950315,0.185734421,-0.641706003,-0.736415716,-5980,4226,-366,114,1255,63,813,385,-706,0
345158076,1494,-274,205,-0.979210138,0.022193722,0.185661474,-0.641788244,-0.736443169,-8194,1670,2670,120,1317,74,815,391,-708,0
345178076,1341,-245,202,-0.980067275,-0.005038083,0.18158305,-0.644651361,-0.734861434,-10670,2000,3552,1,1324,238,845,389,-682,0
345198076,1365,-333,127,-0.979822524,-0.033671513,0.179256899,-0.646654354,-0.733667279,-10282,458,3264,37,1339,246,839,377,-685,0
345218076,1333,-359,85,-0.978444394,-0.063905902,0.177915372,-0.64775781,-0.733002806,-10752,-26,3584,83,1401,236,839,391,-655,0
345238076,1315,-351,89,-0.975863284,-0.095269972,0.17772713,-0.646539889,-0.734219864,-10946,96,4712,208,1470,176,853,377,-643,0
345258076,1285,-251,116,-0.972528655,-0.125670053,0.176245989,-0.646239202,-0.734737493,-11298,1712,6196,178,1509,148,867,367,-615,0
345278076,1261,-198,133,-0.968662962,-0.155229762,0.173450441,-0.647707632,-0.734142119,-11534,2502,7478,105,1544,173,879,365,-593,0
345298076,1276,-112,51,-0.964371212,-0.184727946,0.167704041,-0.649766795,-0.733642915,-11140,3752,7096,96,1508,218,891,363,-585,0
345318076,1256,-41,35,-0.959614301,-0.213884119,0.159527415,-0.64938684,-0.73579501,-11288,4672,7812,249,1493,228,903,365,-564,0
345338076,1179,-166,-8,-0.952893013,-0.244520152,0.154930194,-0.646342406,-0.739391202,-12312,2414,8128,368,1543,186,879,371,-542,0
345358076,1252,-347,-8,-0.944929253,-0.273500817,0.154728625,-0.645034071,-0.740599098,-10886,-620,9100,255,1535,194,895,363,-504,0
345378076,1257,-357,-67,-0.936105881,-0.301949287,0.154763878,-0.649085585,-0.737037534,-10516,-784,9070,-20,1548,274,893,351,-502,0
345398076,1227,-240,-8,-0.927965565,-0.326561147,0.153254094,-0.657915343,-0.729517523,-10688,1116,10886,-252,1518,323,907,349,-480,0
345418076,1202,-172,-11,-0.918985216,-0.35169162,0.151010096,-0.667725598,-0.721015843,-10772,2180,11682,-305,1588,324,925,333,-453,0
345438076,1317,-142,0,-0.910479993,-0.374952931,0.146098343,-0.677815622,-0.712642523,-8628,2526,12644,-270,1547,404,901,325,-431,0
345458076,1334,-78,1,-0.900975233,-0.399166653,0.13995837,-0.686619878,-0.705390349,-8018,3394,13474,-195,1620,380,897,333,-410,0
345478080,1348,87,5,-0.890498528,-0.424158085,0.132232452,-0.694807829,-0.698760251,-7418,5892,14372,-184,1689,308,905,339,-392,0
345498080,1749,136,72,-0.874540549,-0.456368007,0.130739456,-0.700029153,-0.6938558,-684,6452,16122,-136,1505,257,911,323,-355,0
345518080,1700,-14,-19,-0.872036595,-0.46324167,0.123283754,-0.700119184,-0.695208097,-1150,3906,15270,275,844,182,899,323,-352,0
345538080,1413,175,-99,-0.870855261,-0.467708537,0.114366066,-0.699588839,-0.697263971,-5716,6762,14084,256,662,87,909,301,-335,0
345558080,1403,13,-80,-0.871680748,-0.467121635,0.109945767,-0.697782408,-0.699682433,-5908,3912,14386,278,455,27,899,297,-319,0
345578080,1527,-131,-209,-0.868947567,-0.472847642,0.10756611,-0.694837585,-0.703079347,-3872,1438,12452,333,659,32,887,299,-305,0
345598080,1655,-84,-315,-0.866373608,-0.478064673,0.103586077,-0.692750344,-0.705466526,-1762,2092,10896,296,598,80,883,311,-325,0
345618080,1640,-37,-433,-0.862175595,-0.487117307,0.097285462,-0.688364916,-0.710836912,-1882,2662,9242,448,675,69,897,307,-320,0
345638080,1721,45,-672,-0.854332272,-0.501969282,0.088950974,-0.680534188,-0.719199065,-466,3634,5706,671,637,131,891,307,-301,0
345658080,1786,212,-424,-0.851038693,-0.508632023,0.082623155,-0.675189154,-0.72500198,686,6096,9882,503,268,133,903,293,-292,0
345678080,1931,223,-189,-0.847082824,-0.515411729,0.080852463,-0.671247829,-0.728819208,3138,6216,13862,325,294,20,903,299,-269,0
345698080,1860,184,66,-0.846925914,-0.516535465,0.074769649,-0.661054671,-0.738638345,2004,5394,17984,716,-8,-17,899,307,-289,0
345718080,1691,280,238,-0.85249557,-0.508577444,0.06614767,-0.647796996,-0.751075327,-884,6648,20478,908,-454,-10,897,281,-301,0
345738080,1656,258,378,-0.863710865,-0.490634354,0.055496975,-0.635605618,-0.762145191,-1814,5948,22138,892,-905,109,873,289,-296,0
345758080,1731,73,549,-0.879269451,-0.463386957,0.04612674,-0.626210893,-0.770452598,-1126,2680,23984,728,-1307,160,905,277,-320,0
345778080,1845,89,588,-0.893812206,-0.435491458,0.04079054,-0.61657618,-0.778491536,222,2762,23690,649,-1306,36,911,295,-296,0
345798080,1938,293,557,-0.908775004,-0.404088566,0.037190908,-0.607465189,-0.785858784,1220,5906,22166,589,-1439,5,925,279,-316,0
345818080,1767,305,147,-0.919441944,-0.37889673,0.040214227,-0.601584356,-0.790072985,-1866,6198,14780,318,-1127,-156,941,295,-349,0
345838080,1733,526,-649,-0.924050421,-0.367844418,0.040423285,-0.589931108,-0.7989145,-2554,9740,1668,642,-519,-157,935,283,-378,0
345858080,1757,264,-843,-0.933158075,-0.344072554,0.039950695,-0.576641621,-0.808371354,-2476,5536,-2202,725,-1065,-150,959,301,-394,0
345878080,1859,-74,-823,-0.946970044,-0.304585697,0.040390632,-0.56737449,-0.81495443,-1302,142,-3170,526,-1726,-98,949,295,-416,0
345898080,1536,-169,-790,-0.960995093,-0.25732255,0.042608919,-0.560178485,-0.819842644,-6934,-1306,-4184,410,-2024,-113,957,307,-447,0
345918080,1534,-90,-661,-0.973239683,-0.206841487,0.045652883,-0.55259067,-0.824958527,-7416,48,-3958,419,-2378,-117,959,277,-449,0
345938080,1693,146,-606,-0.985951897,-0.133320818,0.048488519,-0.551009167,-0.825539539,-5270,3930,-5270,146,-3037,-53,971,337,-523,0
345958080,1621,269,-446,-0.993733747,-0.058433671,0.046487222,-0.552779088,-0.824831137,-6680,6028,-5372,-9,-3322,-80,955,313,-596,0
345978080,1426,190,-201,-0.99576094,0.007226532,0.042675125,-0.553863887,-0.824202435,-9848,4608,-3554,39,-2848,21,953,305,-625,0
345998080,1329,-57,-173,-0.994312726,0.059096491,0.041317233,-0.552037995,-0.825607374,-11336,440,-4866,177,-2349,135,921,317,-647,0
346018080,1251,23,-207,-0.991268288,0.10013045,0.040191026,-0.553630274,-0.824758176,-12456,1744,-6834,13,-1996,42,899,307,-716,0
346038080,1185,83,-228,-0.987092081,0.13680188,0.039665978,-0.555210507,-0.823916959,-13354,2732,-8432,22,-1897,-43,903,323,-742,0
346058080,1040,62,-192,-0.979433391,0.182731971,0.04199795,-0.55499626,-0.823298283,-15484,2372,-9038,113,-1888,-21,867,319,-783,0
346078080,1010,-65,-222,-0.970579997,0.225524126,0.043878819,-0.555016503,-0.823295774,-15660,398,-10930,112,-1785,-3,859,321,-791,0
346098080,820,-68,-181,-0.96138566,0.262604794,0.04267034,-0.555732556,-0.822853977,-18396,312,-11494,56,-1557,112,825,325,-813,0
346118080,630,-47,-159,-0.951926397,0.295872224,0.039537101,-0.557890851,-0.821553595,-21124,546,-12234,-35,-1407,167,821,321,-847,0
346138080,484,-6,-29,-0.942848369,0.324169245,0.037154192,-0.560671614,-0.819730761,-23162,1122,-11082,-59,-1208,124,803,317,-852,0
346158080,474,-17,59,-0.93543897,0.345419807,0.034718412,-0.560282608,-0.820090847,-23074,868,-10372,86,-921,173,775,315,-866,0
346178080,702,-139,78,-0.929731034,0.360798091,0.033331635,-0.55631344,-0.822861584,-19238,-1130,-10574,261,-680,195,787,309,-900,0
346198080,520,-9,157,-0.926014647,0.370363457,0.03229436,-0.553477541,-0.824743049,-22028,916,-9624,211,-426,162,769,321,-910,0
346218080,499,94,375,-0.924114116,0.37492606,0.035098912,-0.547417266,-0.828721838,-22300,2654,-6288,413,-220,78,757,323,-914,0
346238080,616,14,421,-0.923677612,0.375372497,0.041651111,-0.539378528,-0.833703736,-20414,1590,-5564,553,-44,-31,777,325,-897,0
346258080,658,-109,393,-0.92590146,0.368653055,0.049921512,-0.533182247,-0.837067315,-19818,-106,-5790,490,271,-132,755,333,-897,0
346278080,583,-118,391,-0.930872861,0.353982233,0.061406543,-0.523409534,-0.84244273,-21182,124,-5340,687,600,-200,769,317,-915,0
346298080,664,-35,166,-0.935898893,0.337856948,0.073986308,-0.510463666,-0.84937899,-20050,1864,-8412,832,640,-202,789,353,-909,0
346318080,1880,524,2112,-0.926739266,0.358148005,0.092514219,-0.500237802,-0.853619132,-298,11414,22060,778,-949,-478,785,349,-914,0
346338080,1444,-1102,719,-0.933109932,0.33565223,0.110711102,-0.483445138,-0.861188086,-7482,-14010,510,1052,868,-363,747,391,-895,0
346358080,1562,423,82,-0.941946296,0.309548182,0.111264218,-0.471685467,-0.867624838,-5762,10760,-9054,729,748,-198,751,405,-890,0
346378080,1754,142,751,-0.949867029,0.277578359,0.126263337,-0.43995947,-0.882018046,-3082,6404,2934,1630,1171,-95,773,421,-856,0
346398080,1338,-97,191,-0.960053388,0.234377487,0.135202589,-0.412803948,-0.893628985,-10044,2930,-4698,1354,1537,-47,771,431,-856,0
346418080,1235,-602,194,-0.966207247,0.1926517,0.155238151,-0.388773942,-0.901209453,-11954,-4846,-3242,1186,1529,-159,787,435,-830,0
346438080,1505,-433,262,-0.971071076,0.157447694,0.163616748,-0.380854893,-0.903075458,-7774,-1700,-952,458,1414,-65,795,467,-795,0
346458080,1451,-207,343,-0.975154091,0.127234301,0.164773931,-0.381433535,-0.902533332,-8758,2090,1426,101,1377,-7,809,463,-794,0
346478080,1354,-200,284,-0.978219388,0.098525217,0.166016679,-0.383233158,-0.901674876,-10404,2238,1424,49,1323,-7,849,443,-762,0
346498080,1311,-215,334,-0.979902316,0.075238757,0.167640447,-0.385743309,-0.900242753,-11154,2036,3054,24,1183,-8,847,451,-773,0
346518080,1233,-170,286,-0.981416814,0.05480334,0.166502884,-0.388717063,-0.899262013,-12440,2742,2950,5,1061,77,865,449,-740,0
346538080,1496,-239,289,-0.982391328,0.034207528,0.165398324,-0.388187919,-0.899535395,-8268,1580,3660,153,1028,112,869,453,-730,0
346558080,1353,-229,259,-0.982930776,0.009966662,0.165138153,-0.388233919,-0.899638141,-10570,1720,3994,134,1202,90,875,453,-732,0
346578080,1275,-204,281,-0.982885713,-0.013292061,0.164642605,-0.387736976,-0.899926186,-11812,2114,5160,166,1217,87,887,455,-683,0
346598080,1319,-233,207,-0.982418029,-0.036457533,0.163804449,-0.386910139,-0.900552565,-11088,1604,4694,177,1165,122,899,443,-691,0
346618080,1338,-274,186,-0.981310997,-0.05906532,0.162804991,-0.386481117,-0.900731007,-10752,890,5110,161,1159,159,917,435,-651,0
346638080,1312,-248,163,-0.979784112,-0.082909945,0.16148846,-0.386830229,-0.900944833,-11106,1276,5528,136,1220,158,919,423,-641,0
346658080,1308,-274,99,-0.977182783,-0.108483344,0.161481145,-0.38551194,-0.901484104,-11088,840,5326,199,1263,121,913,437,-626,0
346678080,1339,-365,19,-0.973054249,-0.136685917,0.164331979,-0.384280417,-0.901472272,-10468,-578,4938,173,1337,75,939,415,-606,0
346698080,1321,-318,-22,-0.968007892,-0.165961087,0.166571713,-0.385551291,-0.900521191,-10580,278,5242,64,1405,76,933,413,-601,0
346718080,1278,-213,-19,-0.962517103,-0.194816578,0.166655392,-0.389355859,-0.898903597,-11066,2028,6264,-32,1450,99,935,409,-560,0
346738080,1276,-282,3,-0.956212102,-0.22190832,0.168465606,-0.393665073,-0.896676177,-10886,932,7548,-52,1443,101,935,425,-566,0
346758080,1317,-259,-16,-0.94946567,-0.248321244,0.169495295,-0.400602557,-0.893491084,-9994,1356,8120,-155,1455,134,941,427,-519,0
346778080,1226,18,54,-0.94435828,-0.270309398,0.164106486,-0.41325522,-0.888816753,-11222,5808,10026,-363,1397,216,953,419,-493,0
346798080,1267,77,30,-0.939303312,-0.291361339,0.155884915,-0.425730193,-0.884270923,-10394,6522,10330,-331,1359,292,927,425,-474,0
346818080,1215,-26,-27,-0.932743572,-0.314914459,0.148780791,-0.43391224,-0.881527225,-11022,4562,10172,-133,1412,300,957,411,-467,0
346838080,1253,-134,-76,-0.923476696,-0.342153871,0.145409087,-0.441295158,-0.878345655,-10122,2640,10280,-127,1576,257,931,399,-455,0
346858080,1276,-151,-111,-0.912669547,-0.370764859,0.143016918,-0.446675628,-0.876072049,-9392,2276,10656,-47,1637,212,935,401,-423,0
346878080,1260,-44,-84,-0.900739646,-0.399766104,0.139566386,-0.450391499,-0.874681832,-9218,3950,12078,15,1718,134,949,407,-400,0
346898080,1225,-10,-129,-0.886152543,-0.432381708,0.135184171,-0.450670697,-0.875295822,-9288,4374,12420,164,1871,81,943,413,-378,0
346918080,1307,5,-125,-0.87009117,-0.465134621,0.129749487,-0.449067101,-0.876914533,-7420,4444,13594,264,1945,64,951,391,-333,0
346938080,1320,-38,-120,-0.851612985,-0.49843879,0.127073332,-0.448929369,-0.877243593,-6582,3634,14800,165,2071,38,959,395,-314,0
346958080,1433,-191,-102,-0.835775366,-0.524067376,0.12900861,-0.453006638,-0.874976981,-4226,1142,15950,-30,1815,89,931,389,-275,0
346978080,1570,-388,-383,-0.821985867,-0.544419099,0.132651215,-0.454027798,-0.873888779,-1654,-1980,12004,85,1411,65,915,397,-268,0
346998080,1509,-38,-276,-0.817071484,-0.551448498,0.133630366,-0.459767537,-0.870714935,-2400,3856,13978,-157,870,53,915,397,-238,0
347018080,1360,-23,-37,-0.81805433,-0.548873372,0.138490051,-0.468232298,-0.86550186,-4738,4252,17824,-338,586,-12,921,407,-240,0
347038080,1282,-18,-63,-0.81286251,-0.556086564,0.140219337,-0.472397259,-0.862988863,-5820,4394,17634,-104,1020,-28,909,401,-227,0
347058080,1247,66,-215,-0.803440897,-0.57030678,0.136296912,-0.47088225,-0.864303458,-6114,5678,15590,192,1206,-58,903,383,-198,0
347078080,1268,43,-365,-0.793683458,-0.584603671,0.132552643,-0.466155361,-0.86744431,-5504,5174,13586,303,1093,-127,917,395,-190,0
347098080,1324,-37,-405,-0.788535889,-0.592185356,0.130225437,-0.458674941,-0.871903697,-4444,3758,13184,406,731,-186,889,399,-185,0
347118080,1416,-89,-355,-0.789252587,-0.59185137,0.12693698,-0.44865758,-0.877486365,-2974,2780,14016,554,374,-193,885,401,-190,0
347138080,1655,-188,-453,-0.785332572,-0.597818049,0.122717236,-0.437648211,-0.883544968,742,1004,12342,607,221,-99,877,409,-178,0
347158080,1802,-65,-582,-0.780859781,-0.60458732,0.117923831,-0.425835518,-0.88994113,3242,2816,10496,647,257,-104,903,395,-175,0
347178080,1841,264,-401,-0.779902065,-0.607619869,0.10851388,-0.406742139,-0.900023136,3896,7774,13496,1020,15,-164,883,379,-170,0
347198080,1742,492,-100,-0.787937334,-0.59938838,0.094469719,-0.382902058,-0.911784532,2044,10964,18056,1300,-582,-137,891,375,-161,0
347218080,1798,443,174,-0.806929247,-0.575805534,0.080959825,-0.367697218,-0.919313433,2316,9740,21668,977,-1300,105,893,375,-174,0
347238080,1410,338,205,-0.848661363,-0.514903128,0.065976104,-0.369053893,-0.91999767,-4930,7846,20698,256,-2253,289,925,343,-196,0
347258080,1497,183,-166,-0.873320103,-0.47471996,0.044214639,-0.351531552,-0.928115496,-4496,4538,13242,1137,-1513,259,949,347,-206,0
347278080,1775,185,-488,-0.892697968,-0.438793058,0.027194519,-0.330585681,-0.93635946,-872,3854,6600,1226,-1697,264,957,321,-249,0
347298080,1771,61,-823,-0.909989355,-0.402725587,0.01448641,-0.299815685,-0.946934536,-1504,1452,60,1514,-1656,-23,979,301,-316,0
347318080,1807,-59,-1105,-0.925731156,-0.365429111,0.01134512,-0.274631126,-0.954493904,-1442,-572,-5678,1132,-1661,-224,985,303,-306,0
347338080,1693,-63,-1112,-0.940765217,-0.32519538,0.016684431,-0.258614264,-0.958978029,-3756,-460,-7114,654,-1762,-366,995,307,-324,0
347358080,1556,-123,-1013,-0.954930305,-0.280786194,0.025132225,-0.248678923,-0.961406507,-6414,-1142,-6984,389,-1908,-382,983,289,-368,0
347378084,1530,-121,-845,-0.968228195,-0.230668075,0.032100699,-0.245298009,-0.962066479,-7270,-882,-5936,159,-2116,-237,1015,309,-399,0
347398084,1357,-5,-727,-0.977505762,-0.188684942,0.035355155,-0.243111737,-0.96283249,-10392,1108,-5716,139,-2123,-107,1003,309,-459,0
347418084,1272,93,-637,-0.984247468,-0.150612332,0.035210699,-0.239457496,-0.963796832,-11960,2736,-5536,216,-1957,-59,1017,313,-488,0
347438084,1139,-9,-590,-0.9885669,-0.119008446,0.039178318,-0.233276455,-0.965239355,-14224,1168,-5866,309,-1737,-153,1013,303,-523,0
347458084,1030,-135,-622,-0.990750106,-0.096218521,0.048559376,-0.227722682,-0.966224268,-16038,-636,-7206,270,-1466,-242,1009,323,-549,0
347478084,960,-210,-634,-0.991737073,-0.079578239,0.060035021,-0.225106409,-0.966355274,-17186,-1518,-7994,143,-1267,-242,999,303,-564,0
347498084,882,-256,-602,-0.991863973,-0.066160388,0.072549789,-0.224783242,-0.965452433,-18442,-1888,-7938,43,-1145,-224,1007,325,-603,0
347518084,802,-222,-618,-0.992382511,-0.043685172,0.078616723,-0.227896409,-0.963605734,-19704,-976,-8440,-53,-894,-166,989,313,-617,0
347538084,771,-146,-628,-0.992479967,-0.028045127,0.084931494,-0.233283293,-0.961781267,-20188,446,-9128,-143,-623,-175,985,313,-626,0
347558084,783,-38,-598,-0.992276195,-0.018583253,0.090252443,-0.239993233,-0.959670702,-19990,2346,-8958,-194,-366,-136,987,327,-631,0
347578084,808,-16,-520,-0.99188723,-0.011145845,0.095799992,-0.248648353,-0.956920991,-19576,2880,-7954,-276,-272,-146,969,323,-645,0
347598084,848,7,-346,-0.991493272,-0.004281038,0.100565913,-0.259859188,-0.953458238,-18924,3404,-5396,-382,-237,-116,981,327,-653,0
347618084,814,140,-102,-0.991186522,0.00479812,0.1042521,-0.271207895,-0.949997293,-19456,5650,-1792,-383,-329,-73,985,339,-662,0
347638084,920,41,66,-0.990507275,0.00853309,0.110372927,-0.275104225,-0.948177159,-17738,4266,774,-72,-140,-174,963,313,-674,0
347658084,1175,72,75,-0.990275459,0.001691675,0.112692681,-0.26977348,-0.949463882,-13634,5008,1202,330,321,-231,993,329,-676,0
347678084,1519,61,236,-0.990081146,-0.003737636,0.113631645,-0.262438878,-0.951270945,-8126,4842,4056,426,373,-150,965,331,-665,0
347698084,1510,53,505,-0.990138371,0.002210107,0.113507493,-0.261185486,-0.951665673,-8268,4698,8316,193,127,-95,983,323,-679,0
347718084,1379,148,547,-0.990263663,0.009179935,0.112401094,-0.263346963,-0.951235011,-10364,6244,8804,60,155,-131,979,339,-669,0
347738084,1367,258,519,-0.990754396,0.010704098,0.107797684,-0.263723403,-0.951643841,-10566,7920,8286,135,346,-72,991,349,-660,0
347758084,1446,365,473,-0.991885159,0.007063851,0.097742806,-0.262232143,-0.953281716,-9334,9356,7624,210,490,88,987,327,-651,0
347778084,1189,431,342,-0.992938088,-0.005820666,0.085280974,-0.260559732,-0.954812575,-13480,10086,5928,210,838,84,989,329,-632,0
347798084,1034,355,188,-0.992971059,-0.031025536,0.078182111,-0.25132359,-0.95788643,-15964,8626,4226,509,1226,-125,993,327,-623,0
347818084,1323,-77,49,-0.99061816,-0.062013635,0.087567434,-0.237906305,-0.960466111,-11298,1664,2924,641,1336,-369,1001,335,-605,0
347838084,2274,-1063,-483,-0.984300915,-0.11280458,0.105049296,-0.239921395,-0.958313126,4106,-13566,-4006,-68,2090,-626,1001,349,-569,0
347858084,2189,-634,-911,-0.970667139,-0.188277308,0.11986167,-0.258798063,-0.951572377,3158,-6218,-8338,-796,3226,-396,1001,357,-526,0
347878084,1311,215,-209,-0.96393054,-0.224705294,0.109894248,-0.277520487,-0.947485292,-10582,7298,4100,-633,1688,313,985,361,-499,0
347898084,1029,570,-334,-0.957418339,-0.258837903,0.088258827,-0.283338107,-0.947980691,-14882,12540,3094,-68,1379,343,1007,359,-489,0
347918084,1005,104,-380,-0.948744051,-0.288348176,0.088906452,-0.284384668,-0.947551444,-15018,4576,3380,47,1254,60,997,353,-453,0
347938084,1102,-78,-259,-0.94129226,-0.309521604,0.096731361,-0.294940945,-0.943697397,-13188,1944,6084,-434,1056,-125,1001,345,-434,0
347958084,1383,-223,-408,-0.936421551,-0.320560999,0.106822708,-0.300474189,-0.940818019,-8558,-88,3990,-262,525,-215,999,365,-422,0
347978084,1405,-495,-299,-0.931834046,-0.329314003,0.119364374,-0.29863349,-0.939904347,-8040,-4224,6128,88,533,-188,1003,347,-414,0
347998084,1406,-575,-224,-0.925278785,-0.34401002,0.128784868,-0.289602911,-0.941595633,-7794,-5240,7868,447,823,-132,989,355,-401,0
348018084,1408,-418,-412,-0.917338638,-0.362220692,0.13500419,-0.28146001,-0.943177253,-7522,-2414,5366,393,868,-126,979,357,-380,0
348038084,1287,-179,-342,-0.911258817,-0.376476744,0.136851199,-0.2734752,-0.945257584,-9222,1608,6986,400,741,-132,975,377,-380,0
348058084,1232,-52,-240,-0.90708071,-0.38703973,0.134805915,-0.265673161,-0.947753349,-9922,3662,9028,424,668,-95,981,357,-360,0
348078084,1190,10,-330,-0.902774919,-0.397772754,0.131630776,-0.259604353,-0.949768865,-10472,4596,7878,340,607,-75,971,363,-361,0
348098084,1185,-4,-483,-0.897184223,-0.410863832,0.129549309,-0.254370004,-0.951514736,-10408,4292,5762,278,596,-82,981,369,-346,0
348118084,1188,-47,-534,-0.890858967,-0.424450103,0.128492673,-0.248221038,-0.953173162,-10168,3540,5384,304,602,-100,967,381,-330,0
348138084,1207,-127,-555,-0.883963982,-0.438294249,0.129476954,-0.241383329,-0.954827845,-9652,2210,5490,332,600,-99,967,377,-329,0
348158084,1188,-218,-588,-0.876854651,-0.451476462,0.132279227,-0.237123773,-0.95553115,-9726,824,5392,209,588,-96,969,373,-320,0
348178084,1154,-210,-617,-0.868843833,-0.46586545,0.135355841,-0.235293565,-0.95564601,-10010,1054,5392,107,655,-61,959,371,-289,0
348198084,1160,-146,-614,-0.860379918,-0.480607677,0.137301253,-0.234183175,-0.955603529,-9632,2158,5932,96,695,-26,973,367,-307,0
348218084,1196,-117,-517,-0.853423666,-0.49263439,0.137664651,-0.233054979,-0.955801891,-8772,2674,7970,118,697,-21,959,371,-297,0
348238084,1269,-98,-446,-0.847683216,-0.502237234,0.138562553,-0.2347512,-0.955327425,-7368,3020,9482,8,697,-4,957,383,-279,0
348258084,1328,-79,-376,-0.843454601,-0.508771481,0.140361979,-0.238692163,-0.954091372,-6248,3398,10874,-94,656,-5,947,361,-269,0
348278084,1315,-80,-291,-0.840960274,-0.512331063,0.142293428,-0.242056662,-0.952961946,-6344,3442,12398,-67,583,-25,945,365,-270,0
348298084,1321,-121,-311,-0.838081446,-0.517094621,0.141725787,-0.238586944,-0.953878278,-6160,2738,12230,250,584,-59,953,369,-259,0
348318084,1281,-108,-309,-0.834734861,-0.521728503,0.144439637,-0.237301718,-0.953806343,-6688,3044,12410,92,601,-131,947,385,-250,0
348338084,1250,-13,-282,-0.83185162,-0.526456432,0.143684083,-0.230735756,-0.955500776,-7068,4608,13012,313,587,-210,931,385,-243,0
348358084,1295,17,-267,-0.83044387,-0.529368944,0.141058953,-0.220528174,-0.958294697,-6286,5020,13360,473,493,-252,927,387,-226,0
348378084,1315,-57,-192,-0.831434201,-0.528236426,0.139734967,-0.208055936,-0.961308951,-5976,3732,14570,568,353,-286,941,385,-228,0
348398084,1341,-131,-160,-0.833672561,-0.524969831,0.138953779,-0.192589743,-0.964659477,-5634,2472,14996,696,258,-317,927,381,-203,0
348418084,1393,-47,-156,-0.83674702,-0.520886913,0.135472947,-0.17372147,-0.968638279,-4898,3762,14932,836,200,-359,911,367,-204,0
348438084,1554,18,-64,-0.843248062,-0.512163375,0.12849389,-0.151624613,-0.973281968,-2506,4610,16158,1009,12,-344,913,377,-184,0
348458084,1990,94,-190,-0.84480224,-0.510838512,0.123127281,-0.128726332,-0.977193166,4150,5530,13708,1016,-203,-232,911,379,-218,0
348478084,2168,426,-256,-0.850594142,-0.502709696,0.116544075,-0.10477238,-0.980810175,6808,10628,12384,1077,-531,-205,907,373,-191,0
348498084,2112,508,66,-0.866917701,-0.476427438,0.107121842,-0.079908777,-0.984221075,5370,11636,16690,1171,-1383,-101,927,371,-216,0
348518084,1480,857,305,-0.894266482,-0.425241904,0.09896178,-0.076297496,-0.985348547,-5650,16954,18856,382,-2390,301,919,355,-239,0
348538084,1619,771,46,-0.914889878,-0.384450484,0.076637747,-0.050959161,-0.989020826,-4102,14848,13372,1415,-1960,475,957,331,-262,0
348558084,1983,259,-526,-0.93819383,-0.328636492,0.053628021,-0.022505227,-0.991591487,942,5904,2410,1517,-2543,525,975,325,-282,0
348578084,2159,115,-1023,-0.954208001,-0.281790124,0.036807166,0.014214024,-0.992410289,3240,3050,-7088,1727,-2082,260,965,287,-317,0
348598084,2087,318,-1168,-0.966789199,-0.236119928,0.033164583,0.037705682,-0.991884977,1688,6178,-10922,1058,-1964,-36,977,285,-374,0
348618084,2131,-61,-1048,-0.977391697,-0.187276343,0.038664031,0.055105511,-0.990869137,2044,292,-10602,742,-2062,-298,965,305,-388,0
348638084,2048,-108,-795,-0.986732768,-0.129668543,0.043734171,0.069341697,-0.989866126,404,-294,-8438,638,-2404,-224,985,295,-434,0
348658084,1863,115,-650,-0.993403167,-0.062120015,0.046089615,0.07812706,-0.989114957,-2786,3352,-8322,444,-2781,-57,991,293,-451,0
348678084,1769,67,-546,-0.995516138,0.014280941,0.045867176,0.08929334,-0.988194706,-4368,2580,-9154,555,-3136,69,979,315,-512,0
348698084,1729,181,-403,-0.992241994,0.084935127,0.044782089,0.099815868,-0.987160953,-4894,4366,-9192,525,-2902,137,977,289,-565,0
348718084,1503,-26,-367,-0.987094797,0.136605442,0.041578313,0.112656441,-0.986655451,-8270,968,-10688,586,-2601,237,955,299,-620,0
348738084,1352,-166,-344,-0.979363956,0.184475418,0.04247679,0.117892316,-0.985947976,-10418,-1340,-11928,279,-2492,166,945,307,-667,0
348758084,1236,-160,-287,-0.970127378,0.228774063,0.043673301,0.114959292,-0.986410985,-11944,-1212,-12488,-55,-2376,98,939,315,-668,0
348778084,1031,-61,-195,-0.956110455,0.281570133,0.041254863,0.108617343,-0.986425761,-14874,378,-12320,-177,-2198,104,915,305,-729,0
348798084,864,-1,-141,-0.941320382,0.328381887,0.038844299,0.105994027,-0.986777009,-17044,1258,-13004,-34,-1996,134,913,313,-730,0
348818084,668,-8,-78,-0.927129515,0.367064893,0.038420093,0.106629465,-0.986869412,-19706,1132,-13268,117,-1684,100,911,321,-784,0
348838084,559,66,-51,-0.914665461,0.397216737,0.039379492,0.109824277,-0.986419,-21038,2348,-13828,236,-1335,87,901,321,-796,0
348858084,495,-60,-56,-0.904369568,0.420240877,0.040257859,0.114958994,-0.985813648,-21722,360,-14664,307,-1037,126,871,319,-805,0
348878084,452,13,74,-0.894473799,0.441081222,0.039987226,0.121629931,-0.985004354,-22086,1520,-13268,342,-954,200,865,333,-817,0
348898084,445,-11,274,-0.885620039,0.458601996,0.040980935,0.128898077,-0.983977027,-21906,1168,-10640,385,-812,171,857,313,-843,0
348918084,565,-13,342,-0.879634993,0.469857004,0.043594195,0.137091713,-0.982815597,-19786,1222,-9924,447,-539,137,853,327,-854,0
348938084,714,-92,462,-0.877473447,0.473209821,0.051010798,0.149560282,-0.980725827,-17332,202,-8112,695,-190,50,839,315,-858,0
348958084,619,-9,472,-0.877828859,0.471036367,0.063190854,0.163282957,-0.977785543,-18868,1928,-7880,836,51,-94,849,325,-852,0
348978084,650,-74,475,-0.881909085,0.461036129,0.077629093,0.174874699,-0.974662129,-18506,1358,-7506,803,402,-218,839,339,-804,0
348998084,614,-59,405,-0.888241442,0.445394631,0.094512232,0.187000012,-0.970987456,-19290,2152,-8112,868,635,-305,859,359,-816,0
349018084,1142,206,814,-0.888357898,0.443440704,0.102380813,0.19653257,-0.968358982,-10886,6886,-1360,749,213,-291,859,357,-828,0
349038084,1541,-301,1290,-0.88147179,0.452156514,0.12215376,0.210430676,-0.963099794,-4238,-822,5828,993,-515,-375,839,379,-838,0
349058084,1813,-383,-210,-0.895230629,0.418157738,0.141015186,0.228660082,-0.956384437,-342,-1520,-17054,1136,1392,-273,835,395,-818,0
349078084,1686,24,646,-0.906554637,0.387036962,0.156472444,0.255163874,-0.947446622,-2744,5492,-2340,1388,1179,-39,843,407,-795,0
349098084,1643,257,200,-0.922858361,0.344313826,0.160118812,0.275150416,-0.941255497,-3844,9634,-8268,1036,1459,-109,877,403,-814,0
349118084,1454,-356,61,-0.937746994,0.292113528,0.176354777,0.297393464,-0.931901649,-7420,-12,-8822,1158,1760,-169,893,431,-736,0
349138084,1576,-534,148,-0.947387539,0.245626567,0.193720741,0.312935136,-0.923093708,-5840,-2360,-5814,895,1645,-264,887,419,-721,0
349158084,1569,-356,213,-0.955058804,0.208683675,0.198644223,0.31361852,-0.921768609,-6194,752,-3500,159,1454,-87,919,419,-691,0
349178084,1160,-156,204,-0.961418664,0.178275554,0.196981049,0.308638904,-0.923771329,-12942,3982,-2580,-114,1312,22,909,435,-674,0
349198084,1495,-110,269,-0.967092462,0.147703975,0.193835362,0.303827658,-0.925986828,-7760,4672,-504,-102,1354,22,941,433,-667,0
349218084,1363,-102,346,-0.972063323,0.119341886,0.187873844,0.297323978,-0.929323677,-10050,4602,1760,-176,1393,144,933,405,-670,0
349238084,1311,-137,251,-0.976371802,0.089535248,0.181416654,0.29446999,-0.931521539,-11022,3798,1186,-33,1380,229,925,409,-651,0
349258084,1320,-297,174,-0.978903569,0.056767916,0.180117016,0.297857963,-0.930603052,-10980,1082,1002,248,1412,188,947,415,-604,0
349278084,1271,-478,134,-0.979391593,0.022654079,0.184610002,0.302611543,-0.92830042,-11800,-1802,1482,327,1453,115,939,407,-578,0
349298084,1270,-507,100,-0.978572376,-0.011706725,0.189419149,0.303500695,-0.927075991,-11790,-2122,2076,165,1505,110,963,403,-550,0
349318088,1297,-309,101,-0.977621669,-0.044825332,0.188610608,0.299641347,-0.928423662,-11298,1158,3216,-38,1543,168,961,407,-532,0
349338088,1317,-40,84,-0.976965887,-0.076528553,0.181038905,0.295022028,-0.93140422,-10914,5404,3998,-76,1512,214,969,413,-531,0
349358088,1316,74,24,-0.975738849,-0.108723525,0.170157838,0.293412613,-0.933948794,-10876,6950,4078,49,1492,253,977,401,-489,0
349378088,1293,-26,-37,-0.972858075,-0.141859848,0.160902981,0.296842877,-0.934386585,-11166,4972,4180,273,1483,257,979,393,-462,0
349398088,1257,-158,37,-0.969269196,-0.170236664,0.15445025,0.296854969,-0.935517617,-11620,2540,6372,159,1412,299,985,381,-420,0
349418088,1253,-131,29,-0.965810312,-0.193750257,0.147443266,0.29106248,-0.938384632,-11562,2760,7032,-74,1274,349,981,393,-418,0
349438088,1253,-172,4,-0.961941881,-0.215802925,0.14147867,0.283531079,-0.941599581,-11434,1872,7356,-137,1227,372,979,375,-410,0
349458088,1223,-183,108,-0.958238512,-0.23306774,0.138548724,0.274013819,-0.94478474,-11764,1582,9678,-212,1162,293,981,365,-374,0
349478088,1366,-226,114,-0.953963805,-0.250705555,0.137043231,0.264389452,-0.947785059,-9332,830,10362,-219,1195,262,975,371,-374,0
349498088,1463,-120,137,-0.950793194,-0.263470741,0.134703079,0.254248042,-0.950860802,-7652,2524,11166,-251,1024,214,991,359,-358,0
349518088,1434,66,220,-0.949041545,-0.272011071,0.129907706,0.243612677,-0.954325467,-8022,5460,12824,-271,916,180,991,353,-331,0
349538088,1414,81,344,-0.948440898,-0.275771059,0.126319024,0.234591376,-0.957077274,-8296,5586,15006,-207,804,110,975,345,-322,0
349558088,1448,44,507,-0.949245086,-0.273860278,0.124205485,0.230038678,-0.958401652,-7760,4892,17632,-23,639,35,973,341,-311,0
349578088,1574,71,201,-0.948132008,-0.281060757,0.116107945,0.237584218,-0.957572879,-5756,5080,12804,488,742,110,987,359,-292,0
349598088,1550,149,-141,-0.944786608,-0.29611359,0.104730876,0.253225625,-0.95484362,-6082,6004,7646,804,806,86,981,337,-301,0
349618088,1652,-49,-132,-0.942907188,-0.304187723,0.098742345,0.269243089,-0.951213585,-4392,2512,8070,808,539,13,973,333,-274,0
349638088,1779,-87,-102,-0.939145351,-0.316683758,0.093719046,0.280962283,-0.948180126,-2316,1676,8750,628,483,113,971,337,-273,0
349658088,1909,-12,-84,-0.934983999,-0.330273822,0.088098373,0.288961619,-0.946370319,-96,2692,9482,488,544,179,971,339,-265,0
349678088,1980,155,11,-0.928178491,-0.349729272,0.083782868,0.293436045,-0.945343409,1260,5224,11642,334,820,175,963,331,-252,0
349698088,1999,242,97,-0.919849152,-0.37219118,0.078071215,0.301569322,-0.943317013,1836,6428,13752,500,943,165,955,319,-231,0
349718088,1892,303,217,-0.914114976,-0.387214767,0.070541217,0.314098673,-0.939735804,312,7158,16166,704,612,154,963,315,-234,0
349738088,1795,338,465,-0.913113728,-0.391586283,0.059506944,0.333322812,-0.93400708,-1206,7358,20274,1025,118,164,953,327,-211,0
349758088,1909,363,714,-0.918547733,-0.380407432,0.046230902,0.35899454,-0.925118241,434,7322,23904,1323,-564,141,959,295,-207,0
349778088,2112,133,686,-0.930691054,-0.350781741,0.040497608,0.378060425,-0.917862866,3282,3458,22486,954,-1343,-18,959,277,-225,0
349798088,2247,212,584,-0.946836358,-0.304740328,0.042736382,0.373500021,-0.919626059,4906,4794,19354,-120,-1980,54,979,283,-247,0
349818088,2101,462,-45,-0.955487138,-0.275478635,0.049698594,0.37030373,-0.920502964,2296,9020,8318,-114,-1238,-157,975,289,-264,0
349838088,2027,414,-677,-0.963552749,-0.245493639,0.05252242,0.377027599,-0.91757364,848,8346,-2776,354,-1281,-115,1005,285,-283,0
349858088,1885,258,-832,-0.974381456,-0.199227516,0.052034542,0.393556731,-0.910696747,-1790,5834,-6760,811,-1977,-71,1005,279,-296,0
349878088,1712,149,-865,-0.98344304,-0.14863375,0.0546218,0.422435716,-0.897627691,-4866,4176,-8934,1347,-2164,-259,1007,283,-334,0
349898088,1791,108,-711,-0.990842029,-0.085868418,0.059437382,0.44691813,-0.885442294,-3854,3678,-8518,1176,-2641,-256,1005,291,-363,0
349918088,1725,121,-649,-0.994328383,-0.004701341,0.066797649,0.463169377,-0.876501823,-5042,4128,-10170,835,-3358,-261,1005,299,-407,0
349938088,1466,39,-453,-0.992595688,0.065806022,0.068532346,0.470871314,-0.872980306,-9086,2958,-9712,425,-3348,-92,1031,313,-493,0
349958088,1278,47,-271,-0.987653587,0.120885544,0.066476718,0.475411624,-0.870538795,-11908,3028,-8578,283,-2659,58,1023,327,-563,0
349978088,1110,-132,-328,-0.981271952,0.165010294,0.069584561,0.479034852,-0.868565813,-14350,118,-11056,240,-2362,31,1027,311,-563,0
349998088,845,-84,-320,-0.971371656,0.214107646,0.072827595,0.478754506,-0.867699683,-18342,1044,-12112,122,-2031,-55,1021,317,-604,0
350018088,749,-3,-338,-0.960662644,0.257584697,0.075835033,0.478280578,-0.86766077,-19514,2438,-13834,111,-1823,-49,1011,327,-647,0
350038088,697,-121,-362,-0.94906909,0.296815982,0.080398072,0.478664689,-0.867122957,-19962,696,-15510,175,-1673,-96,981,333,-668,0
350058088,556,-239,-374,-0.938173994,0.329076394,0.083696393,0.476745622,-0.867789933,-21860,-1084,-16760,64,-1382,-79,987,341,-691,0
350078088,543,-281,-274,-0.927968426,0.357207863,0.083203353,0.470925365,-0.870977495,-21730,-1772,-16084,-163,-1199,1,989,335,-701,0
350098088,441,-124,-221,-0.92103583,0.376814567,0.074116338,0.464279858,-0.875362726,-23134,444,-15880,-336,-826,300,965,327,-715,0
350118088,430,-9,45,-0.91569696,0.390791103,0.068405495,0.468093395,-0.873828806,-23130,2098,-12084,165,-625,353,975,339,-741,0
350138088,504,-222,181,-0.912683183,0.397338582,0.070916788,0.480873525,-0.866607148,-21848,-1230,-10122,687,-335,215,963,325,-747,0
350158088,629,-250,159,-0.914416568,0.391676899,0.079702426,0.492184969,-0.859595511,-19904,-1390,-10290,738,193,-41,957,317,-741,0
350178088,589,-101,-23,-0.91800016,0.380133655,0.092864047,0.499599142,-0.853998844,-20664,1424,-12822,651,455,-274,969,333,-726,0
350198088,511,-86,-464,-0.922138192,0.365237935,0.10956347,0.50467319,-0.849002467,-22048,2208,-19390,612,597,-451,963,327,-751,0
350218088,1319,231,764,-0.922995385,0.359456217,0.120716444,0.520350751,-0.83797201,-9172,7906,598,1124,318,-365,973,355,-726,0
350238088,1898,-421,1308,-0.918397026,0.362216284,0.145532807,0.542708028,-0.819831315,260,-1982,9066,1548,-332,-444,949,355,-718,0
350258088,2564,-225,-487,-0.929584492,0.324858701,0.16122081,0.560511615,-0.804883288,10544,1666,-18426,1201,1449,-199,967,403,-710,0
350278088,1586,350,658,-0.940083046,0.283070123,0.177780235,0.575172152,-0.79108079,-5448,11400,1266,1077,1629,-318,975,395,-653,0
350298088,1166,-81,-234,-0.955589417,0.220755264,0.183719925,0.591119561,-0.778704599,-12560,4788,-11360,902,1988,-82,971,381,-641,0
350318088,1168,-466,180,-0.961812666,0.17627145,0.196939075,0.602739191,-0.765835006,-12886,-1208,-2906,827,1701,-106,989,413,-594,0
350338088,1547,-352,300,-0.966450095,0.147005171,0.197764546,0.601108607,-0.766898515,-6928,802,0,28,1253,40,987,407,-583,0
350358088,1258,-126,152,-0.971655983,0.123128198,0.187484329,0.595625924,-0.77355467,-11704,4180,-1600,-283,1067,334,1005,399,-557,0
350378088,1527,-275,112,-0.975364052,0.09328353,0.184859244,0.592551598,-0.776526371,-7536,1626,-1266,-85,1261,163,1021,387,-527,0
350398088,1391,-398,161,-0.977312027,0.064090839,0.186660544,0.588890567,-0.778952289,-9798,-372,528,-69,1292,99,1011,387,-536,0
350418088,1413,-364,172,-0.978945382,0.034913322,0.185383864,0.58453732,-0.782551805,-9494,156,1696,-118,1345,197,1023,381,-511,0
350438088,1443,-364,77,-0.979602475,0.004313014,0.184308386,0.580687284,-0.785537073,-9038,120,1148,-92,1355,194,1019,381,-483,0
350458088,1351,-210,55,-0.979847074,-0.028237808,0.180349058,0.575422117,-0.79034953,-10496,2546,1880,-172,1473,208,1009,391,-446,0
350478088,1295,-97,69,-0.979259728,-0.06161529,0.174272483,0.570431219,-0.795227174,-11360,4228,3250,-153,1564,213,1009,365,-461,0
350498088,1291,-175,67,-0.977265934,-0.094531605,0.170194208,0.567070272,-0.798563041,-11358,2786,4324,-50,1562,213,1003,369,-403,0
350518088,1268,-126,26,-0.974431098,-0.126726011,0.164456125,0.564991891,-0.801122764,-11626,3414,4726,15,1528,241,1009,355,-394,0
350538088,1249,-65,92,-0.97094113,-0.156670967,0.158509636,0.564488675,-0.802659402,-11792,4232,6836,108,1522,193,1015,375,-366,0
350558088,1349,-118,114,-0.967136484,-0.182905603,0.153202834,0.565943222,-0.802729014,-10058,3172,8082,221,1396,197,1009,373,-356,0
350578088,1244,-197,88,-0.962614501,-0.20741705,0.149348397,0.567707414,-0.802067617,-11594,1712,8482,254,1344,219,987,359,-331,0
350598088,1194,-299,-20,-0.957228962,-0.23207549,0.147534545,0.566202205,-0.803577656,-12234,-66,7498,99,1298,277,997,357,-325,0
350618088,1288,-381,-23,-0.952793755,-0.250195969,0.145935864,0.560848095,-0.807527754,-10582,-1470,8058,-66,1075,368,1015,345,-282,0
350638088,1254,-323,-48,-0.949112084,-0.264627948,0.143775321,0.552744586,-0.813370064,-10998,-580,8126,-199,936,390,999,341,-283,0
350658088,1379,-183,29,-0.94646953,-0.27563522,0.140201156,0.540477857,-0.822154976,-8870,1654,9782,-402,907,369,999,323,-256,0
350678088,1494,12,144,-0.946431119,-0.278309705,0.135350963,0.524883248,-0.83303792,-6988,4746,11774,-571,661,313,997,313,-234,0
350698088,1411,180,288,-0.947514085,-0.27673641,0.130874059,0.506831279,-0.84478407,-8316,7390,14112,-698,604,204,999,313,-230,0
350718088,1442,284,553,-0.948035017,-0.27764149,0.12507421,0.498344161,-0.850681402,-7792,8904,18502,-242,802,70,999,315,-211,0
350738088,1592,258,474,-0.945649667,-0.289796729,0.11433674,0.504954817,-0.848214822,-5334,8108,17596,482,1131,99,993,329,-190,0
350758088,1839,160,212,-0.940132812,-0.308444725,0.110027222,0.51235266,-0.844283925,-1388,6160,13504,475,753,138,985,301,-181,0
350778088,1749,210,156,-0.937408349,-0.317949453,0.106224723,0.520643992,-0.839773441,-2736,6834,12912,510,356,100,985,303,-185,0
350798088,1745,230,9,-0.933838215,-0.330300737,0.099547699,0.532969316,-0.832890751,-2684,6936,10970,730,460,142,981,307,-177,0
350818088,1834,97,12,-0.929995876,-0.343295343,0.090145906,0.546935795,-0.824817987,-1136,4502,11448,844,487,210,993,303,-169,0
350838088,1868,45,99,-0.925225982,-0.358307274,0.080097803,0.555891883,-0.819935776,-434,3344,13328,630,601,308,987,291,-161,0
350858088,1969,199,378,-0.92030172,-0.372438256,0.070370248,0.562735096,-0.816063289,1342,5488,18258,538,582,324,977,279,-157,0
350878088,1858,366,570,-0.917695209,-0.38047855,0.060465558,0.573593855,-0.809315924,-346,7838,21590,732,305,248,963,263,-148,0
350898088,1799,386,688,-0.918737307,-0.379387194,0.050115444,0.592701867,-0.796149382,-1328,7818,23446,1128,-114,101,969,249,-135,0
350918088,1900,197,643,-0.924229637,-0.367004514,0.040977173,0.616014529,-0.778831311,106,4496,22326,1329,-608,-28,969,235,-144,0
350938088,2211,148,272,-0.932988023,-0.34470536,0.039373646,0.631682023,-0.766415656,4796,3660,15656,879,-1012,-156,991,245,-140,0
350958088,2024,107,140,-0.943129811,-0.315366352,0.045044161,0.636504244,-0.762068251,1468,3190,12586,269,-1276,-231,983,241,-168,0
350978088,1932,-4,-233,-0.950612074,-0.290684024,0.054916391,0.636077419,-0.761803225,-242,1734,5804,-32,-1054,-303,1013,251,-169,0
350998088,1926,-90,-395,-0.959342901,-0.259568261,0.061201554,0.635687098,-0.761715151,-628,566,2194,18,-1319,-167,1009,257,-193,0
351018088,1804,-34,-525,-0.97020054,-0.215915058,0.062353452,0.636731287,-0.760791162,-2944,1500,-1306,143,-1839,16,1015,247,-218,0
351038088,1598,23,-653,-0.979587575,-0.16886783,0.0628065,0.642953875,-0.755465139,-6554,2428,-4892,418,-1977,-8,1049,255,-253,0
351058088,1678,-6,-580,-0.988189587,-0.108379263,0.064018273,0.650728969,-0.748600069,-5568,2004,-5692,506,-2517,-34,1041,261,-272,0
351078088,1755,60,-814,-0.993892644,-0.027079979,0.066980295,0.654434096,-0.745253066,-4544,3158,-12082,293,-3338,-61,1071,265,-330,0
351098088,1396,160,-287,-0.99323447,0.053761302,0.066933352,0.647691742,-0.751459302,-10246,4928,-6542,-291,-3581,-142,1073,273,-413,0
351118088,1161,2,-159,-0.988211714,0.115199849,0.067833704,0.641469546,-0.756873913,-13812,2322,-6532,-245,-2801,-72,1071,287,-476,0
351138088,1044,184,-258,-0.98241774,0.158987354,0.06576737,0.636884281,-0.760951476,-15438,5324,-9688,-152,-2254,-156,1071,303,-529,0
351158088,933,28,-384,-0.972332524,0.21007411,0.071363752,0.633783063,-0.76242313,-16966,2788,-13004,-1,-2104,-176,1047,305,-561,0
351178088,812,66,-314,-0.961645793,0.254491232,0.073715729,0.63222775,-0.763494791,-18538,3472,-13352,45,-1859,-36,1063,307,-583,0
351198088,792,-120,-509,-0.951881651,0.28873056,0.07610366,0.631291997,-0.764098058,-18530,574,-17598,83,-1451,-29,1049,311,-610,0
351218088,556,-70,-416,-0.942935321,0.316616677,0.077544032,0.628853867,-0.76589063,-22012,1418,-17026,-3,-1187,-17,1055,325,-639,0
351238092,575,-53,-420,-0.9359568,0.33807179,0.072322149,0.622006433,-0.77195728,-21476,1522,-17794,-321,-895,155,1041,321,-674,0
351258092,326,97,-146,-0.932077501,0.349831324,0.066869544,0.623859499,-0.770967666,-25332,3742,-13798,102,-514,313,1045,313,-688,0
351278092,378,-75,6,-0.930604592,0.35310572,0.070212233,0.64038749,-0.757042501,-24454,1100,-11472,967,-208,255,1037,309,-687,0
351298092,432,-254,-58,-0.931431985,0.347105255,0.08700411,0.66124323,-0.737220827,-23620,-1214,-12296,1433,146,-156,1043,299,-672,0
351318092,472,-336,-202,-0.933300894,0.334799778,0.111417133,0.67574827,-0.720674563,-23042,-1730,-14198,1273,407,-555,1045,337,-698,0
351338092,458,-421,-686,-0.936983302,0.314881114,0.135571782,0.690531209,-0.702394338,-23390,-2306,-21286,1312,699,-545,1041,349,-670,0
351358092,1165,196,549,-0.942445571,0.2943186,0.143389761,0.708314195,-0.683034081,-12256,8102,-714,1342,872,-230,1047,363,-663,0
351378092,2277,-2277,694,-0.943035237,0.277640447,0.170341547,0.735077424,-0.647942061,5506,-30872,2024,2123,379,-460,1027,395,-637,0
351398092,2515,-551,130,-0.949868437,0.24956625,0.175155735,0.734516418,-0.647243941,9106,-3106,-6090,156,1189,-112,1041,393,-632,0
351418092,1379,442,291,-0.960489409,0.210589459,0.167591202,0.739009269,-0.644226447,-9346,12982,-2228,361,1610,-116,1071,383,-603,0
351438092,923,-73,-186,-0.968532577,0.163817978,0.172456769,0.742346033,-0.639045337,-16990,4460,-8328,378,1912,-73,1071,395,-565,0
351458092,1329,-328,230,-0.971834663,0.128742686,0.182907455,0.74703652,-0.630752625,-10600,696,-522,535,1391,-267,1075,379,-546,0
351478092,1744,-277,179,-0.975259695,0.098956292,0.182596251,0.74457648,-0.633692907,-4062,1520,-370,-56,1265,71,1071,375,-503,0
351498092,1499,-246,43,-0.978840094,0.067886934,0.176942449,0.737174649,-0.643828288,-8100,1840,-1542,-429,1361,257,1059,399,-480,0
351518092,1472,-77,81,-0.98121741,0.037911227,0.172018202,0.728232179,-0.655162463,-8594,4496,80,-487,1358,99,1075,369,-439,0
351538092,1448,-140,69,-0.982516093,0.007308511,0.168016643,0.722584317,-0.662405478,-9028,3310,914,-268,1369,145,1091,373,-463,0
351558092,1425,-358,-2,-0.981927048,-0.026465045,0.168593663,0.718864005,-0.666165197,-9402,-302,870,-112,1455,150,1079,389,-410,0
351578092,1358,-256,-3,-0.980354555,-0.062843295,0.167030226,0.713616334,-0.672014447,-10412,1348,2044,-217,1576,163,1079,373,-383,0
351598092,1325,-156,-9,-0.977784745,-0.099203885,0.163925555,0.707395043,-0.679379977,-10838,2898,3208,-265,1671,178,1081,369,-393,0
351618092,1265,-133,44,-0.974110592,-0.134546818,0.159968809,0.701797638,-0.68612198,-11662,3148,5292,-209,1719,210,1055,377,-329,0
351638092,1207,10,72,-0.970171971,-0.166202771,0.153067335,0.69745433,-0.69199321,-12432,5310,6830,-136,1628,204,1063,373,-304,0
351658092,1288,114,131,-0.965940915,-0.195612032,0.144410133,0.695418634,-0.695957977,-10964,6760,8794,-3,1595,178,1071,373,-279,0
351678092,1303,-65,119,-0.961404573,-0.220690766,0.137439562,0.697214428,-0.695482381,-10586,3532,9444,252,1407,230,1061,385,-271,0
351698092,1248,-217,76,-0.956677742,-0.242341835,0.133103819,0.697301684,-0.696171129,-11320,834,9454,184,1269,292,1057,363,-254,0
351718092,1264,-284,32,-0.951938314,-0.261935504,0.129895702,0.694846172,-0.699332096,-10912,-394,9372,52,1181,346,1025,357,-200,0
351738092,1316,-318,218,-0.949653782,-0.270313002,0.128845739,0.687413476,-0.706701495,-9968,-990,12748,-197,911,356,1043,373,-195,0
351758092,1373,-197,211,-0.948255775,-0.276749985,0.124968254,0.678485597,-0.715856167,-8996,906,12846,-284,839,390,1039,339,-181,0
351778092,1405,-68,248,-0.947613409,-0.281444887,0.119452436,0.669420371,-0.725309733,-8440,2878,13614,-302,795,355,1027,349,-152,0
351798092,1522,63,272,-0.947823107,-0.282639522,0.114361386,0.659973353,-0.734584738,-6566,4886,14036,-346,651,248,1021,345,-168,0
351818092,1458,246,343,-0.94896259,-0.281448053,0.107624988,0.652410036,-0.742272768,-7602,7704,15164,-265,580,153,1033,339,-152,0
351838092,1507,164,352,-0.948622227,-0.285053881,0.101230326,0.651513934,-0.744030135,-6812,6126,15436,95,750,103,1031,313,-128,0
351858092,1662,-8,296,-0.948013499,-0.288586855,0.096102951,0.655056838,-0.741502704,-4338,3096,14622,349,677,111,1013,323,-129,0
351878092,1766,80,171,-0.944712056,-0.300728831,0.090804177,0.659411652,-0.738318894,-2704,4252,12594,372,489,214,1027,315,-118,0
351898092,1730,231,128,-0.941443931,-0.312348731,0.084748733,0.666727927,-0.732451493,-3172,6470,12284,537,454,191,999,331,-125,0
351918092,1859,17,244,-0.935996212,-0.330009297,0.077391497,0.675220154,-0.725526161,-930,2806,14720,616,712,211,1023,309,-137,0
351938092,2063,167,338,-0.927752104,-0.354635032,0.066333062,0.68181761,-0.720522294,2600,4846,17038,568,1029,382,1005,311,-78,0
351958092,2069,380,557,-0.919407679,-0.377218964,0.055836145,0.686846055,-0.71663091,2970,7910,21280,494,961,378,999,295,-67,0
351978092,1997,416,858,-0.915673535,-0.387308391,0.045788885,0.699152078,-0.705328593,1940,8156,26424,881,399,189,967,281,-69,0
351998092,1975,467,1108,-0.921140675,-0.374998704,0.036952064,0.718133796,-0.686479047,1406,8684,30028,1236,-594,-14,999,269,-56,0
352018092,2347,454,907,-0.934217986,-0.342168832,0.033094369,0.73065963,-0.673603291,6930,8348,25738,837,-1469,-44,1003,251,-74,0
352038092,2144,513,619,-0.950394675,-0.294366002,0.035850515,0.727601565,-0.676678659,3140,9384,19576,-105,-2048,27,1049,253,-88,0
352058092,2127,249,-606,-0.955468267,-0.276890878,0.041632645,0.74147504,-0.6612039,2716,5348,-614,837,-774,-395,1031,245,-120,0
352078092,1864,-72,-1207,-0.960146628,-0.259827623,0.046351667,0.765847784,-0.632743688,-1652,368,-10780,1512,-790,-525,1053,241,-107,0
352098092,1637,-162,-1231,-0.968321767,-0.227326544,0.049857339,0.787487905,-0.605526933,-5558,-958,-12224,1432,-1436,-414,1079,245,-137,0
352118092,1599,-157,-886,-0.980161304,-0.167183239,0.059158379,0.794110795,-0.595965663,-6568,-570,-8658,484,-2523,-390,1097,265,-165,0
352138092,1509,79,-538,-0.990288824,-0.091653891,0.06258366,0.789901257,-0.601540836,-8374,3426,-5790,-232,-3394,-156,1117,259,-246,0
352158092,1650,46,-424,-0.994648185,-0.01287278,0.062944616,0.78326964,-0.610013412,-6254,2890,-6530,-363,-3472,-22,1125,257,-283,0
352178092,1482,326,-190,-0.99386131,0.05131836,0.057059045,0.776247762,-0.619146802,-8876,7350,-4848,-383,-2794,-20,1143,289,-366,0
352198092,1119,135,-256,-0.990477242,0.101843735,0.053316038,0.772797368,-0.624147082,-14536,4070,-7724,-161,-2445,7,1143,299,-453,0
352218092,948,43,-283,-0.983541843,0.154261462,0.056050729,0.770207096,-0.626625577,-17092,2526,-9558,-37,-2140,-55,1143,287,-467,0
352238092,729,29,-251,-0.97475826,0.201565316,0.061580105,0.766562399,-0.630480208,-20300,2482,-10606,-74,-1948,-183,1151,307,-547,0
352258092,529,50,-173,-0.965225738,0.24227879,0.06724546,0.765315402,-0.631460385,-23180,3002,-10698,88,-1704,-161,1147,299,-582,0
352278092,517,-1,-227,-0.95483841,0.279835727,0.071562096,0.766303943,-0.629809471,-23030,2328,-12794,218,-1596,-74,1133,313,-617,0
352298092,622,-150,-262,-0.944620974,0.312945258,0.071833502,0.768035548,-0.627741614,-21014,-48,-14440,208,-1423,96,1117,319,-639,0
352318092,491,-112,-42,-0.9348551,0.3419684,0.068264488,0.771957777,-0.623256857,-22790,444,-11872,280,-1265,291,1111,303,-643,0
352338092,688,-38,21,-0.927957915,0.361019131,0.06499756,0.779765271,-0.613827948,-19408,1520,-11490,518,-861,375,1109,315,-708,0
352358092,614,-135,74,-0.923848435,0.370951122,0.068564029,0.790446118,-0.599837596,-20452,86,-10970,819,-491,202,1097,307,-711,0
352378092,514,-335,161,-0.92266167,0.371309331,0.081021988,0.801524512,-0.58330352,-22018,-2708,-9588,1034,-94,-95,1111,305,-716,0
352398092,498,-214,10,-0.923703086,0.364242904,0.099066757,0.812148923,-0.565684611,-22308,-182,-11772,1141,204,-299,1107,301,-698,0
352418092,252,-153,-409,-0.922979021,0.359439921,0.121073504,0.819939332,-0.550131772,-26222,1512,-18318,1076,91,-503,1111,317,-705,0
352438092,1241,299,1933,-0.915379826,0.370758589,0.143258044,0.829915492,-0.529681223,-10152,9462,18786,1282,-673,-426,1107,351,-715,0
352458092,1389,-1297,-277,-0.922426639,0.34302124,0.165002463,0.843271868,-0.501656765,-8022,-15368,-15660,1585,972,-301,1085,363,-733,0
352478092,1587,-361,324,-0.935443724,0.297370581,0.179143049,0.85310103,-0.48003161,-5256,26,-4648,1157,1657,-116,1103,369,-688,0
352498092,2354,237,751,-0.942840286,0.264069006,0.191803849,0.861940453,-0.459178353,6754,10040,3372,1122,1230,-158,1097,375,-640,0
352518092,1817,-242,153,-0.95313172,0.219853487,0.195816088,0.867423991,-0.446989873,-2182,2508,-4742,662,1771,50,1131,367,-630,0
352538092,1365,-531,-40,-0.961326621,0.168925252,0.206001527,0.871426011,-0.435110951,-9676,-1952,-6354,594,1799,-37,1131,395,-565,0
352558092,1417,-324,32,-0.966558086,0.127846716,0.210119654,0.870959485,-0.433818821,-9008,1638,-3768,128,1586,-67,1139,375,-551,0
352578092,1365,-228,188,-0.970432462,0.096019279,0.208637897,0.869305367,-0.437769184,-9970,3156,-118,-78,1378,99,1147,381,-519,0
352598092,1704,-266,88,-0.973350074,0.06366311,0.206780991,0.868206177,-0.440729275,-4642,2474,-670,-34,1372,140,1153,367,-515,0
352618092,1512,-308,126,-0.975418981,0.030912053,0.203800443,0.865381664,-0.447475972,-7784,1708,1028,-199,1437,182,1147,403,-454,0
352638092,1455,-263,117,-0.976896932,0.000130607,0.198576089,0.86201237,-0.456266064,-8738,2276,1954,-263,1443,262,1143,383,-450,0
352658092,1454,-290,40,-0.976987639,-0.033569265,0.194608432,0.860342188,-0.461041996,-8760,1698,1770,-96,1455,244,1151,363,-419,0
352678092,1371,-200,30,-0.976056341,-0.067669528,0.189704991,0.860015932,-0.463655109,-10046,3022,2796,28,1532,227,1149,365,-378,0
352698092,1309,-110,33,-0.974235361,-0.102819387,0.182584246,0.860996587,-0.464744199,-10962,4284,4034,126,1607,246,1155,363,-362,0
352718092,1229,-145,8,-0.970593335,-0.140559662,0.17510757,0.862681145,-0.464075003,-12130,3448,4900,213,1734,297,1151,365,-330,0
352738092,1231,-90,50,-0.966110991,-0.176239941,0.167082351,0.865259094,-0.462420616,-11922,4100,6796,289,1717,262,1149,341,-318,0
352758092,1255,-110,124,-0.960847795,-0.207292624,0.160595181,0.867944457,-0.459512221,-11346,3544,9084,346,1634,214,1115,353,-261,0
352778092,1259,-304,91,-0.955090022,-0.234467054,0.156827017,0.871049708,-0.454904402,-11104,172,9440,432,1463,262,1115,315,-230,0
352798092,1139,-392,57,-0.948384829,-0.260816881,0.155428867,0.871644609,-0.454289371,-12812,-1376,9758,257,1463,324,1113,325,-213,0
352818092,1177,-373,69,-0.942533223,-0.281675743,0.154336686,0.869360711,-0.45904661,-11990,-1086,10658,20,1311,351,1103,321,-169,0
352838092,1295,-296,100,-0.938343456,-0.296661602,0.151492703,0.86493496,-0.468219208,-9936,128,11674,-163,1138,388,1115,303,-154,0
352858092,1431,-95,256,-0.938513512,-0.298894839,0.145454753,0.85787902,-0.482636482,-7710,3292,14332,-389,746,413,1101,309,-134,0
352878092,1493,33,364,-0.941481087,-0.292118477,0.140289623,0.85026722,-0.497372182,-6790,5248,15874,-443,413,293,1089,315,-133,0
352898092,1403,136,553,-0.944584657,-0.283983473,0.136150077,0.842985678,-0.510615293,-8300,6816,18728,-408,474,164,1097,309,-118,0
352918092,1396,26,479,-0.944264941,-0.286632098,0.132992188,0.840584978,-0.515439318,-8420,4882,17606,-22,842,90,1087,313,-110,0
352938092,1545,146,228,-0.941822872,-0.299050512,0.12221574,0.844403878,-0.511881026,-5990,6528,13852,415,1012,174,1083,287,-93,0
352958092,1570,303,152,-0.940003663,-0.309883595,0.107104902,0.852613283,-0.501376824,-5536,8630,12956,742,857,142,1075,283,-74,0
352978092,1692,18,201,-0.939884875,-0.312878802,0.099653186,0.859239399,-0.491713561,-3584,3646,13864,658,579,75,1079,277,-76,0
352998092,1834,82,109,-0.935925325,-0.326273168,0.09236594,0.865985435,-0.481060941,-1330,4334,12440,676,519,191,1053,279,-35,0
353018092,1818,211,110,-0.931041829,-0.342293516,0.08350579,0.872704068,-0.470666403,-1424,6110,12980,694,631,243,1067,257,-53,0
353038092,2033,192,184,-0.924278591,-0.362045623,0.072670173,0.878643915,-0.461163366,2234,5452,14818,676,814,324,1057,253,-26,0
353058092,2167,196,394,-0.917386359,-0.381289605,0.060764736,0.883037983,-0.454673069,4608,5126,18800,575,804,404,1035,241,-10,0
353078092,2119,262,644,-0.913010765,-0.393321203,0.047570704,0.888468452,-0.445600176,3982,5752,23198,703,494,401,1017,225,-22,0
353098092,1964,489,921,-0.913822956,-0.393138522,0.030220554,0.899857454,-0.423884595,1472,8816,27628,1292,-62,325,1017,211,17,0
353118092,2168,691,1094,-0.921382586,-0.376065606,0.011890598,0.916186918,-0.388442285,4478,11448,29854,1846,-794,144,1045,161,3,0
353138092,2445,430,702,-0.936433369,-0.337578852,0.003101054,0.926615166,-0.363421248,8414,6982,22320,1255,-1692,11,1065,147,-64,0
353158096,2299,100,-42,-0.948497929,-0.302318841,0.010530652,0.929678936,-0.355500938,5692,1946,9248,326,-1519,-323,1085,153,-71,0
353178096,2183,-23,-800,-0.955120612,-0.280313568,0.024526272,0.933967784,-0.343673207,3624,438,-3608,419,-946,-619,1095,155,-111,0
353198096,1919,-110,-1112,-0.965024285,-0.24352764,0.031782993,0.941199044,-0.322778257,-936,-718,-9790,885,-1575,-446,1081,165,-148,0
353218096,1575,-15,-1111,-0.976429788,-0.192715768,0.036662314,0.94984187,-0.296062324,-6826,962,-11426,1165,-2158,-370,1115,171,-185,0
353238096,1545,11,-704,-0.987106834,-0.129871989,0.040036261,0.953744587,-0.283976272,-7700,1534,-7252,572,-2980,-194,1125,167,-215,0
353258096,1562,47,-539,-0.994542565,-0.050212728,0.040751159,0.95398533,-0.282953219,-7674,2156,-7182,115,-3595,-37,1141,161,-310,0
353278096,1466,-22,-538,-0.995870395,0.020643091,0.042530112,0.953454746,-0.285013754,-9220,1068,-9590,-4,-3327,-23,1141,151,-369,0
353298096,1131,34,-364,-0.993311442,0.076502189,0.042062428,0.951108061,-0.29262723,-14460,1990,-8668,-244,-2725,-4,1133,181,-451,0
353318096,720,-13,-325,-0.986881204,0.134168439,0.046818975,0.948297359,-0.299542077,-20858,1326,-9564,-192,-2337,-148,1125,155,-476,0
353338096,670,-104,-394,-0.978772873,0.182683205,0.055322743,0.946616502,-0.303270707,-21376,148,-12274,-12,-1994,-289,1111,181,-551,0
353358096,567,-79,-423,-0.96986454,0.223433435,0.064722513,0.945716675,-0.304313995,-22724,856,-14080,125,-1699,-306,1093,205,-575,0
353378096,705,-143,-500,-0.960855665,0.257387919,0.074039087,0.944882523,-0.304757185,-20216,136,-16428,161,-1431,-297,1091,197,-605,0
353398096,732,-197,-536,-0.95297173,0.283384485,0.081976672,0.943879321,-0.305907542,-19522,-468,-17858,133,-1105,-249,1087,203,-624,0
353418096,499,-78,-523,-0.946894001,0.302262269,0.085148438,0.942572914,-0.308750212,-23052,1540,-18268,13,-798,-85,1071,189,-631,0
353438096,506,-75,-379,-0.943068353,0.314328535,0.084849585,0.942170169,-0.310276128,-22808,1576,-16366,35,-518,70,1061,217,-671,0
353458096,489,-163,-228,-0.94235873,0.315499496,0.088245444,0.943142207,-0.30632614,-23058,280,-13988,298,-74,-3,1061,195,-649,0
353478096,537,-221,66,-0.943023311,0.309872951,0.100446544,0.945423009,-0.295680227,-22314,-250,-9096,672,179,-258,1065,217,-667,0
353498096,559,46,-21,-0.943641577,0.301036607,0.119368764,0.947398597,-0.282076554,-21986,4638,-10196,857,289,-487,1057,223,-671,0
353518096,573,-214,-369,-0.94722141,0.27817799,0.143664028,0.951839179,-0.254953379,-21886,1268,-15008,1445,790,-546,1071,229,-648,0
353538096,1401,629,1302,-0.946124293,0.270441901,0.164321755,0.957280301,-0.220394615,-8604,15426,11980,1689,69,-339,1075,267,-654,0
353558096,2232,-1536,64,-0.951544685,0.232627284,0.188762164,0.962859517,-0.172309639,4498,-18420,-6574,2245,1213,-389,1061,255,-645,0
353578096,2150,-342,1100,-0.95533455,0.205237707,0.201153586,0.963693643,-0.153912637,3086,1076,10880,935,987,-249,1069,277,-619,0
353598096,1868,30,105,-0.961204678,0.171178602,0.204452282,0.963215899,-0.152510718,-1622,7134,-3920,174,1421,-45,1075,283,-612,0
353618096,986,277,10,-0.968461893,0.129201209,0.199997442,0.963881277,-0.153691376,-15978,10946,-4058,28,1776,248,1087,271,-585,0
353638096,1408,-4,243,-0.97266385,0.097978255,0.196797462,0.965276618,-0.149151953,-9322,6530,756,317,1344,-4,1077,273,-554,0
353658096,1675,-83,178,-0.976708582,0.068429058,0.188418485,0.966829961,-0.14970901,-5192,4946,648,79,1273,248,1103,281,-550,0
353678096,1487,-335,103,-0.979408346,0.037787011,0.182075743,0.96782105,-0.150695063,-8316,564,428,52,1283,347,1101,265,-485,0
353698096,1424,-432,63,-0.980375445,0.008903872,0.180212801,0.967731213,-0.153685797,-9372,-1146,756,-17,1248,287,1097,267,-490,0
353718096,1437,-473,36,-0.980247185,-0.019780733,0.179084326,0.967281345,-0.157163456,-9166,-1862,1276,-36,1260,291,1101,271,-441,0
353738096,1336,-444,-63,-0.978991754,-0.053117188,0.178643489,0.966892533,-0.160111906,-10738,-1414,750,-14,1400,268,1077,251,-404,0
353758096,1309,-470,-69,-0.976004727,-0.088173006,0.180755375,0.966093056,-0.16285393,-11074,-1786,1830,0,1507,197,1087,253,-380,0
353778096,1370,-350,-58,-0.972159471,-0.122722948,0.180568235,0.96481118,-0.170215035,-9952,220,3188,-176,1584,201,1095,251,-374,0
353798096,1292,-128,-3,-0.968419842,-0.154595353,0.175432239,0.963165447,-0.183984943,-11040,3748,5180,-405,1605,269,1087,253,-343,0
353818096,1259,89,145,-0.965415852,-0.181735585,0.165230084,0.961820178,-0.199595287,-11410,7036,8568,-436,1585,315,1085,253,-307,0
353838096,1344,44,76,-0.961715162,-0.208110441,0.154343774,0.961546138,-0.208877597,-9940,5920,8302,-172,1473,359,1097,255,-306,0
353858096,1234,-58,104,-0.957418019,-0.232309597,0.14575807,0.96174814,-0.213964719,-11550,3922,9588,17,1417,340,1083,227,-259,0
353878096,1195,-198,40,-0.95154497,-0.25706277,0.141772763,0.961080741,-0.219313994,-12000,1438,9350,-15,1421,309,1077,229,-252,0
353898096,1237,-219,52,-0.946401903,-0.276806477,0.138763024,0.959650723,-0.227377737,-11144,988,10212,-122,1259,322,1073,231,-229,0
353918096,1244,-212,75,-0.942202505,-0.291912291,0.136132976,0.957612697,-0.237278227,-10876,1018,11100,-190,1117,330,1071,199,-188,0
353938096,1369,-65,119,-0.940834453,-0.298867339,0.130288797,0.955035396,-0.250440195,-8804,3288,12056,-316,821,366,1051,213,-192,0
353958096,1445,-45,254,-0.941982754,-0.296534661,0.126744783,0.950935967,-0.266806845,-7602,3502,14214,-470,541,311,1063,205,-169,0
353978096,1421,0,327,-0.943478875,-0.29194168,0.126372942,0.945617191,-0.285021462,-8020,4238,15270,-597,509,177,1059,215,-182,0
353998096,1390,32,326,-0.941204358,-0.299875684,0.124358244,0.942072358,-0.297168501,-8436,4704,15526,-339,1023,139,1051,199,-161,0
354018096,1570,19,240,-0.936261958,-0.316771928,0.119157967,0.939629195,-0.306750555,-5406,4316,14656,-195,1324,248,1047,199,-128,0
354038096,1554,186,52,-0.933292503,-0.328284377,0.110829016,0.9388739,-0.312138209,-5578,6816,11918,-35,941,198,1033,205,-107,0
354058096,1674,155,160,-0.932909217,-0.331528265,0.104116838,0.938628843,-0.315145733,-3626,6068,13808,52,651,144,1017,195,-108,0
354078096,1780,114,145,-0.926431898,-0.350232342,0.099413209,0.940102194,-0.312100532,-1882,5076,13804,291,795,209,1015,197,-101,0
354098096,1885,119,124,-0.917156717,-0.376065675,0.090269184,0.94368921,-0.304198522,100,4860,14314,563,1081,290,995,187,-78,0
354118096,2109,175,10,-0.904902946,-0.406431796,0.07989898,0.946281459,-0.298866646,4080,5416,13492,483,1313,368,997,171,-51,0
354138096,2194,273,-68,-0.892514035,-0.434362421,0.070821483,0.947900195,-0.296101602,5850,6688,13156,369,1232,355,969,173,-56,0
354158096,2074,354,151,-0.886773692,-0.44726323,0.061651693,0.950194703,-0.290861119,4122,7684,17076,473,554,306,977,145,-14,0
354178096,1902,417,438,-0.890530109,-0.441131979,0.050255081,0.953294277,-0.282758147,1248,8318,21466,619,-314,331,955,153,-34,0
354198096,1985,436,819,-0.904681407,-0.413013965,0.037561777,0.95833098,-0.267608972,2104,8208,26652,906,-1313,261,973,133,-36,0
354218096,2310,280,815,-0.925818104,-0.364422077,0.028222932,0.963419553,-0.250082904,6598,5404,25016,928,-2181,134,983,127,-89,0
354238096,2203,459,371,-0.942352276,-0.319684424,0.028052567,0.966527361,-0.23792354,4348,8264,16440,578,-1955,-94,985,121,-123,0
354258096,2191,223,-360,-0.952432303,-0.287606824,0.037592482,0.970020374,-0.222148363,3834,4800,3682,606,-1391,-496,1009,145,-170,0
354278096,2036,-181,-942,-0.960601177,-0.257505016,0.049372413,0.974508356,-0.19947237,1086,-1278,-6618,869,-1312,-644,1023,141,-198,0
354298096,1730,-105,-1082,-0.970270727,-0.216860915,0.057002498,0.977666695,-0.18128551,-4134,188,-10184,750,-1741,-405,1027,123,-232,0
354318096,1691,-66,-1029,-0.97907505,-0.172460364,0.060542781,0.980842216,-0.162321689,-5048,930,-10790,834,-1891,-223,1019,133,-258,0
354338096,1526,305,-666,-0.989588229,-0.104225064,0.053669241,0.981923692,-0.160065252,-8072,6866,-7486,182,-3190,64,1029,163,-313,0
354358096,1485,353,-544,-0.995321721,-0.023989201,0.048004137,0.982692344,-0.157214941,-8916,7480,-8158,192,-3665,-16,1039,155,-396,0
354378096,1364,10,-415,-0.994790001,0.046002729,0.049154452,0.982035067,-0.161418416,-10808,1824,-8428,-90,-3252,-38,1041,159,-428,0
354398096,1104,114,-255,-0.99123353,0.096851801,0.048868157,0.98068809,-0.16882346,-14814,3572,-7532,-219,-2442,-115,1011,197,-494,0
354418096,1049,-53,-348,-0.986713465,0.135391396,0.052861816,0.980089363,-0.171714444,-15510,882,-10414,-27,-2112,-100,1023,191,-550,0
354438096,819,-27,-330,-0.97878734,0.182260863,0.056548035,0.979062755,-0.173945339,-19000,1422,-11228,12,-1917,-90,1003,209,-576,0
354458096,592,-28,-306,-0.970210295,0.222573292,0.062441707,0.978387397,-0.175812263,-22338,1598,-12178,69,-1676,-174,971,219,-610,0
354478096,511,-12,-333,-0.962089505,0.254321819,0.068764141,0.977691133,-0.177565986,-23360,2062,-13658,87,-1333,-191,969,227,-624,0
354498096,554,-128,-373,-0.953653449,0.283292493,0.073394415,0.976948015,-0.179196868,-22398,358,-15244,79,-1222,-125,935,239,-658,0
354518096,563,-196,-287,-0.946667131,0.306376113,0.073140711,0.97729129,-0.17811011,-22018,-740,-14630,142,-994,100,945,217,-657,0
354538096,443,-84,-62,-0.941551199,0.321889227,0.072713174,0.979319973,-0.166603301,-23772,1038,-11536,541,-699,240,921,229,-675,0
354558096,548,-253,29,-0.938277233,0.33073118,0.075980125,0.982080234,-0.148492651,-21982,-1560,-10372,846,-444,194,937,237,-694,0
354578096,580,-451,55,-0.93747583,0.330647171,0.085362757,0.98377539,-0.131299572,-21446,-4422,-9952,884,-67,-52,927,247,-692,0
354598096,657,-401,267,-0.937872538,0.32513335,0.100942883,0.983865624,-0.119748781,-20224,-3114,-6380,747,170,-367,933,259,-682,0
354618096,568,-110,-61,-0.937285332,0.320426386,0.119548387,0.982778983,-0.111355651,-21632,2148,-11470,656,136,-531,921,245,-680,0
354638096,583,-222,-455,-0.939421736,0.30544154,0.140207812,0.98147095,-0.099031854,-21464,1028,-17284,829,542,-566,925,281,-674,0
354658096,1480,664,1194,-0.936869971,0.303624695,0.160020803,0.980574198,-0.076317662,-7030,15846,9160,1215,-104,-409,903,273,-692,0
354678096,2362,-943,472,-0.941505443,0.275987562,0.18126623,0.979291659,-0.038250584,6920,-9176,-1478,1825,875,-299,903,307,-697,0
354698096,2346,-132,1045,-0.948054066,0.243770462,0.19262246,0.977696104,-0.023090575,6460,4164,8738,811,1236,-209,919,313,-647,0
354718096,1584,328,147,-0.957481973,0.206822356,0.188312922,0.978733171,-0.011756994,-5948,11752,-4516,585,1341,-106,923,313,-646,0
354738096,1046,147,21,-0.965204421,0.161538206,0.192478873,0.978073612,0.004338881,-14912,8624,-4944,772,1768,31,923,339,-601,0
354758096,1187,-392,68,-0.969446488,0.120259564,0.200963406,0.976276241,0.022900175,-12804,158,-2908,861,1487,-16,949,317,-588,0
354778096,1665,-573,93,-0.97273574,0.089316092,0.20051865,0.976183318,0.029211983,-5246,-2640,-1430,351,1237,123,949,341,-565,0
354798096,1617,-489,64,-0.975225624,0.057410812,0.199500519,0.976486217,0.024811171,-6112,-1418,-870,-97,1337,219,937,335,-548,0
354818096,1469,-536,14,-0.976001158,0.024828814,0.201941483,0.976148054,0.016549073,-8518,-2144,-598,-243,1393,144,951,325,-525,0
354838096,1384,-426,148,-0.97595368,-0.003557714,0.203151841,0.975978099,0.004126005,-9868,-294,2600,-382,1402,140,937,317,-516,0
354858096,1386,-311,182,-0.975562785,-0.031317417,0.20203483,0.976101544,-0.009018023,-9804,1586,4108,-396,1448,156,965,319,-511,0
354878096,1348,-177,128,-0.974883111,-0.061064946,0.198102011,0.976724837,-0.020232983,-10368,3682,4212,-311,1505,180,977,317,-482,0
354898096,1256,-21,144,-0.974003866,-0.090879442,0.189918797,0.978066705,-0.027547896,-11784,6016,5494,-139,1537,223,951,323,-449,0
354918096,1264,-190,51,-0.971148355,-0.124025332,0.185502631,0.978923809,-0.029156242,-11582,3038,5050,88,1577,217,967,291,-411,0
354938096,1251,-171,100,-0.967267912,-0.155864127,0.181133614,0.97969234,-0.03054285,-11648,3208,6948,117,1613,204,951,297,-365,0
354958096,1275,-105,71,-0.96294323,-0.186205382,0.174226274,0.980782699,-0.032223517,-11108,4090,7486,113,1568,249,969,293,-365,0
354978096,1231,2,49,-0.958243318,-0.216137553,0.164713304,0.98240941,-0.032424862,-11632,5564,8122,187,1554,253,953,287,-334,0
354998096,1203,-50,39,-0.952998865,-0.243648924,0.156015824,0.983815098,-0.032912882,-11906,4400,8882,188,1484,282,961,301,-346,0
355018096,1169,-164,-10,-0.946329381,-0.270783449,0.150420582,0.984527405,-0.034402037,-12246,2294,8978,143,1475,292,947,271,-301,0
355038096,1297,-265,13,-0.939541705,-0.295001902,0.14716317,0.984842874,-0.039642468,-9962,506,10172,13,1422,321,943,267,-281,0
355058100,1317,-234,48,-0.933268201,-0.315665729,0.143366116,0.98491713,-0.048867309,-9414,898,11452,-136,1360,370,947,265,-270,0
355078100,1259,-168,40,-0.926690336,-0.336030323,0.139049341,0.984909663,-0.059271829,-10106,1852,12004,-181,1378,367,927,247,-257,0
355098100,1299,-165,56,-0.919227678,-0.356719114,0.136541486,0.984462829,-0.070776047,-9202,1822,12962,-238,1444,317,939,263,-229,0
355118100,1582,23,94,-0.912824279,-0.375369975,0.129053386,0.98428712,-0.085368488,-4430,4716,14208,-328,1407,408,913,253,-189,0
355138100,1742,-70,99,-0.906197026,-0.392563032,0.123558426,0.98410961,-0.094156057,-1826,2920,14456,-142,799,421,903,247,-200,0
355158100,1415,59,15,-0.903489554,-0.40077238,0.116903381,0.984598676,-0.097620685,-6782,4912,13740,64,869,189,903,241,-172,0
355178100,1330,289,15,-0.901347902,-0.408243552,0.107293325,0.985608615,-0.098700518,-8054,8432,13972,122,815,86,897,239,-156,0
355198100,1476,99,-45,-0.900441725,-0.411917526,0.099742272,0.986650269,-0.095634792,-5716,5002,13120,304,608,105,905,233,-150,0
355218100,1535,-11,-246,-0.897679958,-0.418996945,0.094595943,0.987653945,-0.0903963,-4734,3004,10036,367,617,67,895,233,-141,0
355238100,1631,-157,-379,-0.894368911,-0.426525431,0.0914338,0.988604905,-0.082776804,-3124,476,8104,457,561,52,881,233,-157,0
355258100,1716,-90,-513,-0.888840634,-0.438908294,0.087125968,0.989820294,-0.073550172,-1672,1412,6172,515,511,68,875,221,-148,0
355278100,1688,57,-432,-0.884978974,-0.44757011,0.081985903,0.99084072,-0.065748263,-1992,3596,7752,477,352,120,875,221,-156,0
355298100,1890,48,-299,-0.882842071,-0.452553982,0.07727491,0.99149812,-0.061573857,1308,3296,10042,338,202,169,869,235,-129,0
355318100,1950,292,-234,-0.880068,-0.458718957,0.072408188,0.992188089,-0.056683252,2360,7042,11286,367,254,160,869,229,-136,0
355338100,1933,325,-28,-0.878792234,-0.462056862,0.065633823,0.993166782,-0.047009321,2128,7350,14694,576,114,137,843,205,-120,0
355358100,1771,316,216,-0.880214736,-0.460395159,0.058715786,0.994128704,-0.036076069,-508,6980,18540,625,-122,117,863,199,-120,0
355378100,1628,299,447,-0.896521797,-0.429501686,0.044383827,0.995203452,-0.023989368,-3044,6444,21802,717,-658,126,861,213,-128,0
355398100,1677,177,530,-0.907646907,-0.406718913,0.034607178,0.995931817,-0.008370044,-2918,3966,21816,842,-1061,167,863,205,-140,0
355418100,1820,116,572,-0.918789228,-0.381802756,0.026438472,0.996243177,0.009912547,-996,2724,21676,912,-1136,84,855,191,-150,0
355438100,1992,367,245,-0.928024879,-0.359416226,0.020675834,0.996022673,0.031349074,1452,6548,15710,993,-1008,-33,863,179,-189,0
355458100,1861,500,228,-0.939208001,-0.329231814,0.020902345,0.995515211,0.044757446,-1014,8686,14452,604,-1321,-121,869,185,-217,0
355478100,1840,367,-500,-0.945468135,-0.310918629,0.024269259,0.994409494,0.065303028,-1548,6666,2196,845,-810,-323,859,207,-206,0
355498100,1755,38,-737,-0.952746663,-0.287681283,0.027761328,0.99288002,0.084885528,-3150,1518,-2354,813,-1011,-299,861,191,-225,0
355518100,1733,-182,-654,-0.961966645,-0.255263964,0.031266376,0.991572011,0.098568259,-3806,-1886,-2088,595,-1392,-214,875,201,-258,0
355538100,1488,-256,-682,-0.970126972,-0.222016627,0.039362674,0.990613934,0.106178984,-8042,-2920,-3816,350,-1655,-178,869,203,-270,0
355558100,1418,-99,-735,-0.978866495,-0.179868467,0.043625445,0.99016083,0.109401628,-9462,-172,-6126,184,-2118,-93,877,219,-299,0
355578100,1651,94,-619,-0.988962401,-0.110772286,0.046002116,0.98995899,0.108595457,-6038,3012,-6224,44,-2834,-12,869,211,-321,0
355598100,1715,191,-498,-0.994923409,-0.028182395,0.049727349,0.990353981,0.103661938,-5216,4688,-6988,-110,-3365,-58,895,193,-368,0
355618100,1454,73,-232,-0.994753882,0.043474764,0.049383332,0.991259553,0.095734997,-9366,2882,-5290,-232,-3152,-30,893,213,-397,0
355638100,1221,14,-153,-0.991071895,0.099458456,0.046149883,0.992146697,0.087664299,-12950,1792,-5896,-248,-2538,116,891,213,-480,0
355658100,1133,103,-169,-0.986152254,0.142083032,0.04289469,0.992992774,0.07903599,-14164,3182,-7620,-263,-2082,8,883,215,-506,0
355678100,1118,107,-204,-0.980540533,0.177906923,0.041822931,0.993635459,0.071656903,-14192,3212,-9418,-194,-1894,-89,887,207,-518,0
355698100,1079,84,-183,-0.974430133,0.209445439,0.040647266,0.993876437,0.068601375,-14602,2788,-10132,-26,-1751,-41,887,233,-543,0
355718100,977,43,-189,-0.964952923,0.248788668,0.042887167,0.993526317,0.068588419,-16012,2094,-11158,109,-1636,-16,885,205,-573,0
355738100,809,-1,-194,-0.9553519,0.283936372,0.04320002,0.993511353,0.069343267,-18372,1402,-12402,135,-1487,73,877,225,-579,0
355758100,730,-16,-154,-0.945856055,0.314653378,0.041581026,0.993641341,0.068308881,-19326,1106,-12768,38,-1307,125,865,217,-594,0
355778100,591,51,-42,-0.937046289,0.340776382,0.037448782,0.993883848,0.067446707,-21256,2044,-11834,10,-1121,224,871,207,-635,0
355798100,596,16,79,-0.929317098,0.36204277,0.03169239,0.994032007,0.0680307,-20924,1294,-10594,37,-921,305,877,199,-665,0
355818100,646,16,259,-0.923385009,0.377245616,0.028537582,0.993762642,0.072953667,-19928,1190,-8216,235,-673,270,857,203,-668,0
355838100,838,-173,374,-0.919495136,0.386720024,0.02863803,0.993140325,0.081404865,-16726,-1830,-6688,418,-429,204,859,209,-680,0
355858100,863,-98,395,-0.917946199,0.390128007,0.032533092,0.992161665,0.091795705,-16276,-504,-6462,550,-168,95,839,193,-668,0
355878100,584,39,382,-0.9168934,0.3922171,0.036985387,0.991322093,0.099140508,-20706,1836,-6738,445,-107,27,843,185,-660,0
355898100,611,0,459,-0.91604783,0.393626418,0.043044645,0.990240855,0.107668055,-20246,1410,-5552,517,-84,-12,851,195,-682,0
355918100,694,-21,479,-0.916113555,0.392323991,0.051890911,0.988754492,0.116945408,-18922,1362,-5190,587,30,-105,849,209,-675,0
355938100,695,-52,452,-0.919086494,0.383596443,0.063262448,0.987118497,0.125421477,-19002,1240,-5336,599,349,-213,847,215,-684,0
355958100,692,-108,458,-0.925145186,0.366246065,0.075620699,0.98491428,0.135732194,-19250,748,-4670,680,716,-230,849,209,-660,0
355978100,1249,205,950,-0.92527351,0.364659397,0.081649395,0.983136907,0.145205375,-10418,6156,3504,666,350,-237,841,209,-647,0
355998100,1943,-353,1670,-0.912763949,0.39040523,0.101970276,0.980725911,0.148700153,1166,-2312,13934,551,-1183,-630,849,223,-656,0
356018100,1156,-518,725,-0.919478776,0.369006243,0.119195794,0.977534855,0.156852107,-11728,-4628,-348,591,1072,-156,817,243,-677,0
356038100,1231,384,-56,-0.933476731,0.332611799,0.117315765,0.976199202,0.167277021,-10734,10366,-12112,595,1094,-167,845,255,-655,0
356058100,1375,411,637,-0.940194497,0.311188443,0.120725482,0.970652249,0.194534104,-8818,10888,122,1369,912,-122,837,263,-644,0
356078100,1240,-101,538,-0.947711779,0.28016242,0.13663242,0.961174058,0.229024258,-11260,2910,-444,1718,1253,-178,855,277,-615,0
