timestamp,ax,ay,az,roll1,roll2,pitch,yaw1,yaw2,fx,fy,fz,gx,gy,gz,mx,my,mz,step
247678384,16448,3772,3406,-0.969161641,-0.117473133,-0.199594659,-0.385240799,0.900889797,1168,1076,10970,107,-205,90,1025,-561,1094,1
247698384,16399,4283,3805,-0.971600801,-0.092255153,-0.201866292,-0.38841413,0.899033874,978,2052,10936,99,-565,70,1015,-573,1095,1
247718384,17554,5529,3318,-0.973444436,-0.062608037,-0.204695904,-0.391709302,0.896967318,3198,4492,8926,124,-826,43,1035,-571,1092,1
247738384,19591,6966,2825,-0.974853881,-0.035255268,-0.20493111,-0.395003505,0.895462319,7228,7266,6808,172,-1019,56,1047,-561,1077,1
247758384,20499,7084,2772,-0.976082252,-0.002574744,-0.202839872,-0.397298027,0.894914474,9004,7566,5632,116,-1253,-33,1069,-585,1050,1
247778384,20357,7125,1246,-0.976639234,0.023235222,-0.198985393,-0.398293696,0.895312032,8704,7774,1734,58,-975,-101,1097,-573,988,1
247798384,17913,5920,-22,-0.976032821,0.042810177,-0.198878553,-0.397957491,0.895481359,3814,5482,-1486,24,-777,-93,1091,-571,955,1
247818384,17405,7434,-1305,-0.974382238,0.058728693,-0.203101564,-0.399128312,0.894027365,2844,8448,-4658,128,-707,-7,1095,-577,919,1
247838384,16973,8847,-3189,-0.971938567,0.074741973,-0.210359387,-0.400734218,0.891678344,2060,11104,-9058,182,-839,41,1117,-569,932,1
247858384,15454,9932,-4001,-0.969576111,0.087041719,-0.216887197,-0.40500227,0.888215445,-912,13138,-11138,326,-722,-67,1135,-585,891,1
247878384,15334,12359,-4067,-0.967874274,0.101119574,-0.21866967,-0.418940546,0.881275086,-1116,18028,-11724,772,-698,-332,1127,-581,873,1
247898384,13661,10722,-1121,-0.965792537,0.12171822,-0.217249322,-0.436785564,0.872865848,-4406,14796,-6392,932,-790,-429,1133,-559,851,1
247918384,13283,9727,-3260,-0.963694638,0.137007212,-0.21823961,-0.463448161,0.858728504,-5064,12742,-11308,1376,-654,-212,1139,-557,830,1
247938384,13706,9532,-3377,-0.961918991,0.147612518,-0.21954774,-0.49896368,0.83818925,-4156,12288,-11898,1814,-375,-85,1137,-569,790,1
247958384,14427,5856,-4194,-0.962414978,0.155374831,-0.212291913,-0.536500769,0.81647877,-2672,4974,-13858,1940,-323,-150,1137,-553,786,1
247978384,14450,3496,-3177,-0.963527855,0.163993692,-0.20038095,-0.572042953,0.79491966,-2638,510,-12070,1863,-340,-178,1133,-553,745,1
247998384,13936,3541,-1957,-0.963543916,0.174660562,-0.190510932,-0.603274543,0.773803554,-3680,936,-9918,1688,-402,-135,1145,-561,751,1
248018384,13081,3936,-1436,-0.962668112,0.185803084,-0.184097872,-0.629675338,0.753933381,-5366,1980,-9226,1481,-453,-72,1151,-559,743,1
248038384,12603,3171,-828,-0.959993869,0.205707042,-0.176055939,-0.655339688,0.733508555,-6270,602,-8386,1398,-489,-2,1169,-555,713,1
248058384,12649,2087,-321,-0.957120907,0.225030683,-0.168425799,-0.681314031,0.711182391,-6076,-1320,-8014,1447,-479,52,1137,-553,696,1
248078388,12501,2490,218,-0.954214791,0.243097013,-0.159646684,-0.709064426,0.685444465,-6282,-230,-7522,1604,-407,68,1155,-541,659,1
248098388,12642,1468,1260,-0.951871142,0.259295668,-0.14786543,-0.737066964,0.657811737,-5924,-1892,-5968,1691,-334,-7,1143,-547,639,1
248118388,12226,771,1921,-0.950071303,0.272666698,-0.134763114,-0.764799764,0.628084864,-6698,-2862,-5084,1759,-224,-17,1147,-549,662,1
248138388,12272,-187,2797,-0.94847542,0.284055755,-0.122461946,-0.7909979,0.597250931,-6550,-4378,-3708,1740,-169,32,1151,-545,604,1
248158388,12921,90,3005,-0.947506115,0.293042123,-0.10799576,-0.815127924,0.566606067,-5190,-3454,-3648,1682,-174,75,1141,-551,603,1
248178388,13725,659,4195,-0.945392199,0.303389098,-0.097520932,-0.83639388,0.53649999,-3538,-1892,-1548,1574,-191,118,1145,-553,596,1
248198388,13140,-1254,5302,-0.942710519,0.316021984,-0.082294573,-0.856124219,0.506880088,-4628,-5370,314,1521,-228,109,1159,-531,575,1
248218388,12881,-2523,6549,-0.94012006,0.327843115,-0.064041576,-0.872787952,0.480197988,-5082,-7376,2488,1370,-141,31,1147,-531,587,1
248238388,11974,-2934,6685,-0.938258246,0.336198255,-0.046122846,-0.886292705,0.456797084,-6846,-7628,2510,1189,2,17,1155,-547,567,1
248258388,10500,-2251,6266,-0.939932423,0.332535183,-0.038068369,-0.896893479,0.436272752,-9806,-5746,1636,1017,288,57,1161,-537,562,1
248278388,8121,-1137,6219,-0.943897348,0.321605675,-0.032947977,-0.904072629,0.421537926,-14692,-3350,1900,722,582,73,1149,-535,574,1
248298388,9179,-955,6266,-0.946813323,0.312999083,-0.030890342,-0.908381142,0.412232025,-12670,-2920,2276,447,471,107,1147,-517,607,1
248318388,10801,-3,5643,-0.947631925,0.309907114,-0.03589398,-0.910775613,0.406434221,-9452,-1182,1130,206,227,330,1171,-535,572,1
248338388,10323,1382,5629,-0.946936231,0.310548972,-0.046787619,-0.909778912,0.407541554,-10388,1232,1082,-164,52,459,1153,-533,587,1
248358388,10094,1058,5322,-0.94628072,0.310694328,-0.057903509,-0.905693645,0.415217709,-10822,220,464,-447,56,376,1155,-553,580,1
248378388,10775,157,4466,-0.947252888,0.305482917,-0.068751307,-0.899431383,0.427141165,-9494,-1936,-1080,-630,265,307,1159,-553,596,1
248398388,13521,98,4299,-0.949304048,0.296433991,-0.07882644,-0.891074557,0.442746883,-4066,-2456,-1108,-808,418,317,1147,-559,591,1
248418388,15959,1259,4182,-0.950934324,0.286902277,-0.092541776,-0.881537251,0.458973378,756,-514,-1046,-865,401,374,1145,-563,616,1
248438388,12653,3807,8207,-0.948432542,0.290269902,-0.107095826,-0.867087744,0.48295038,-5870,4250,7152,-1215,140,124,1147,-563,629,1
248458388,5020,7926,5463,-0.953961914,0.263492217,-0.12473703,-0.848955795,0.51033121,-21236,11776,2300,-1449,1050,376,1151,-571,636,1
248478388,22645,7692,18754,-0.95607803,0.255598476,-0.125082789,-0.850460183,0.507773397,13962,11298,29128,135,434,100,1163,-571,659,1
248498388,29471,-16333,-18900,-0.971980296,0.190972298,-0.115538159,-0.85190854,0.507560743,27052,29088,21508,149,2818,-313,1153,-575,689,1
248518388,20426,12181,7333,-0.979201,0.161502287,-0.097024107,-0.850105446,0.514428541,8752,21188,9378,-114,1293,-734,1147,-557,755,1
248538388,32764,8133,16395,-0.980034554,0.168308979,-0.07491004,-0.856230905,0.507889878,-32130,13816,27276,522,-151,-773,1157,-533,754,1
248558388,23960,16027,13598,-0.981022129,0.169745024,-0.056234894,-0.86284549,0.498943945,15768,30214,21636,595,67,-618,1157,-517,760,1
248578388,11432,18079,-2043,-0.983312747,0.158316119,-0.048052275,-0.870623637,0.486015759,-9364,-30950,-9272,684,595,-173,1155,-505,748,1
248598388,10293,2604,-16385,-0.98894015,0.12311396,-0.040383899,-0.900840461,0.428321891,-11734,3996,27894,2733,564,17,1147,-511,749,1
248618388,20831,-11027,-17585,-0.989982428,0.11420333,-0.029468895,-0.924077196,0.375453975,9176,-23020,26662,2422,553,-109,1143,-505,756,1
248638388,22804,-16426,-16086,-0.991137905,0.104564024,-0.026250967,-0.93015689,0.360300329,13126,31826,29938,698,500,-3,1159,-503,760,1
248658388,21541,-859,-9490,-0.991927385,0.094719287,-0.030468316,-0.921193212,0.382438209,10568,-2714,-22078,-956,465,132,1139,-499,773,1
248678388,16990,5651,-4078,-0.993462041,0.07208292,-0.042949165,-0.909928069,0.407875819,1432,10156,-10800,-1108,616,145,1131,-491,772,1
248698388,17139,4760,-268,-0.993885882,0.054678783,-0.053279973,-0.901318537,0.425346425,1692,7986,-2390,-765,684,166,1127,-511,793,1
248718388,15802,4601,1577,-0.994067464,0.038267924,-0.061971737,-0.894294966,0.438851809,-990,7388,1960,-600,794,117,1149,-495,825,1
248738388,14278,3831,3308,-0.993931798,0.026344148,-0.069610834,-0.888820028,0.44882424,-4034,5566,5942,-455,778,129,1133,-499,840,1
248758388,14087,1274,4582,-0.993817681,0.01831129,-0.073512159,-0.885728495,0.454339039,-4400,156,8852,-258,751,194,1119,-509,869,1
248778388,14669,235,5131,-0.99376973,0.01325549,-0.074749651,-0.88413386,0.457232893,-3228,-2036,10142,-139,674,179,1115,-523,876,1
248798388,13592,949,6191,-0.993728241,0.01482272,-0.075197071,-0.884052686,0.457328171,-5384,-570,12292,-19,514,81,1133,-515,903,1
248818388,12595,2011,7048,-0.993496902,0.021923393,-0.076651629,-0.88506848,0.455084614,-7378,1582,13836,81,375,31,1117,-515,912,1
248838388,14450,1927,7638,-0.993139135,0.03354023,-0.078176418,-0.886927957,0.451217083,-3658,1342,14602,158,156,63,1115,-535,907,1
248858388,13090,2838,6806,-0.992410578,0.045394585,-0.081957127,-0.888119362,0.448181197,-6364,3108,12526,115,117,71,1121,-515,906,1
248878388,10518,6993,5955,-0.990856756,0.052686935,-0.095448454,-0.889441688,0.442808276,-11490,11282,10558,203,276,92,1121,-511,888,1
248898388,10555,5417,2951,-0.99104657,0.044781532,-0.096658197,-0.898729289,0.423133468,-11372,7674,4438,909,498,145,1097,-521,902,1
248918388,11108,-533,3225,-0.991548633,0.032828351,-0.096265215,-0.909516536,0.39936851,-10282,-4214,5378,1085,677,78,1093,-517,927,1
248938388,11251,-2302,3684,-0.991787098,0.022572204,-0.096384381,-0.918818859,0.377244567,-10006,-7756,6632,1001,601,85,1085,-523,932,1
248958388,14876,-5948,2829,-0.992715448,0.020822212,-0.086693405,-0.926787287,0.359528646,-2744,-15168,5130,792,425,218,1087,-535,950,1
248978388,12815,346,3604,-0.992367681,0.018358275,-0.091232464,-0.929163203,0.352165004,-6888,-2354,6854,306,523,320,1069,-547,933,1
248998388,12195,-96,2516,-0.991617236,0.006090788,-0.099845051,-0.931132745,0.344415268,-8108,-3456,4836,346,621,408,1041,-541,979,1
249018388,13910,-2219,2285,-0.991597541,-0.000120774,-0.100086813,-0.934850687,0.334028801,-4650,-7958,4732,452,584,373,1035,-555,946,1
249038388,18303,-1490,5184,-0.991715351,0.006557744,-0.099231982,-0.93905689,0.322219281,4124,-6396,10414,500,189,233,1031,-559,951,1
249058388,28431,-6027,10012,-0.990855563,0.023407396,-0.105325645,-0.939646851,0.31843644,24386,-15498,19260,175,-583,304,1019,-571,956,1
249078388,31279,-5390,12212,-0.988910187,0.063214405,-0.108476035,-0.935019601,0.330891592,30136,-14326,22364,-521,-1599,162,1015,-563,945,1
249098388,32764,4185,9311,-0.983358879,0.125342226,-0.1067594,-0.928524774,0.349383308,-32270,4878,14544,-761,-2548,-87,1009,-555,887,1
249118388,32764,7480,-768,-0.974550802,0.187140239,-0.099080271,-0.929359891,0.349497324,-31974,11716,-7644,80,-2462,-251,1019,-565,811,1
249138388,32537,2808,-13272,-0.965269301,0.23451726,-0.090376317,-0.937392678,0.329656465,-32116,2658,31322,949,-1800,-109,1027,-559,745,1
249158388,29520,2171,-10310,-0.9565333,0.273754796,-0.071920256,-0.944430334,0.313398432,27676,1988,-29578,910,-1488,-489,1015,-547,708,1
249178388,27721,-8721,-5917,-0.946765292,0.309331445,-0.056820672,-0.944564946,0.316059403,24402,-19302,-21962,109,-1419,-560,1009,-563,684,1
249198388,25368,-4527,-6757,-0.935298845,0.343269553,-0.054452816,-0.933945017,0.346971957,20068,-10836,-24750,-1199,-1445,-469,1017,-545,658,1
249218388,18429,6854,-3582,-0.925857004,0.366168823,-0.069969179,-0.91846971,0.384466527,6668,11694,-19618,-1588,-1635,-263,1017,-561,595,1
249238388,10401,5093,-3206,-0.912938034,0.396267068,-0.073293589,-0.90717922,0.4093893,-9144,7786,-19382,-1039,-1308,-235,989,-551,611,1
249258388,7927,2279,-2919,-0.902692825,0.419372082,-0.073214447,-0.899415473,0.426411344,-13732,2162,-19578,-671,-1000,-258,975,-553,568,1
249278388,6142,1312,-4134,-0.894404411,0.436845075,-0.073892715,-0.889895082,0.446027886,-17032,208,-22582,-786,-766,-301,1003,-565,536,1
249298388,3892,1188,-4557,-0.888174815,0.449223122,-0.075276462,-0.878830831,0.467369016,-21328,-88,-23834,-874,-550,-327,971,-573,549,1
249318388,4207,317,-4983,-0.884728219,0.455649488,-0.077437699,-0.865291012,0.4918076,-20584,-1900,-24896,-1026,-296,-379,985,-567,554,1
249338388,6396,-1010,-6444,-0.883157572,0.457712455,-0.082769992,-0.849521309,0.517872225,-16158,-4728,-27882,-1171,-114,-314,977,-567,551,1
249358388,9194,-1403,-9377,-0.897038683,0.429592844,-0.085911675,-0.831381783,0.546563622,-10596,-5746,31894,-1257,115,-278,995,-577,573,1
249378388,11244,1682,-8616,-0.908226047,0.401901541,-0.101289271,-0.808856908,0.577182224,-6938,118,-31168,-1512,117,-72,973,-581,554,1
249398388,4577,7070,-8939,-0.908713307,0.395096121,-0.118732892,-0.785074536,0.605763486,-20654,10258,-30808,-1622,207,114,987,-587,596,1
249418388,2748,7212,-5262,-0.909177033,0.389536781,-0.132708129,-0.771696115,0.619994787,-24302,10090,-23288,-925,205,265,983,-595,603,1
249438388,5093,1031,239,-0.912098335,0.384514166,-0.127170163,-0.778120738,0.613057904,-19704,-2094,-12124,466,374,-1,997,-603,606,1
249458388,7830,-1284,-2936,-0.918989751,0.370368205,-0.118561109,-0.780362565,0.611879235,-14460,-6442,-18008,245,743,-233,985,-609,619,1
249478388,12276,1313,-1117,-0.923134578,0.357830277,-0.124495002,-0.772401061,0.620807882,-5702,-1442,-13960,-513,566,103,989,-609,644,1
249498388,18995,-1871,5570,-0.928393703,0.341448292,-0.130980077,-0.752067395,0.644156389,7610,-8238,-96,-1329,543,119,985,-605,681,1
249518388,18511,85,7924,-0.933689864,0.322169816,-0.141347772,-0.706931746,0.691603716,6384,-4586,5390,-2690,624,-271,979,-613,654,1
249538388,16224,6861,9189,-0.935208147,0.299467606,-0.176729353,-0.640329739,0.746547652,1648,8120,8786,-3722,675,121,1005,-617,703,1
249558388,19085,10172,16495,-0.930048615,0.293060629,-0.212132171,-0.568637639,0.794308953,7626,13432,23436,-3739,-416,380,1015,-621,749,1
249578388,21772,16146,32764,-0.917621676,0.305741927,-0.247120458,-0.500039715,0.830051109,13412,24262,-9984,-3387,-1312,452,999,-613,746,1
249598388,14863,26876,28121,-0.914469097,0.288377032,-0.278961554,-0.433005098,0.857748613,-288,-20820,-18708,-3159,-51,393,1001,-613,766,1
249618388,9846,26380,-24566,-0.931982175,0.237348659,-0.267613498,-0.441591144,0.856800131,-10878,-21448,8646,467,2452,-301,1001,-613,783,1
249638388,19172,-10726,-7449,-0.946173403,0.232943878,-0.214730571,-0.550266899,0.806547098,7196,-28464,-22420,5247,1602,-868,975,-631,825,1
249658388,32764,-26959,11912,-0.951039258,0.255993292,-0.158702673,-0.607742168,0.77728512,-31232,6432,15480,3097,-294,-1513,987,-621,841,1
249678388,19556,-7,17720,-0.952951362,0.259814499,-0.139348184,-0.58352245,0.79926797,7870,-4568,26936,-1047,-241,-1043,997,-601,836,1
249698388,14563,13330,-2696,-0.953877248,0.245577095,-0.15802604,-0.536218189,0.828588394,-2156,22034,-13742,-2130,-38,-426,1009,-563,865,1
249718388,5898,19364,-11320,-0.954097312,0.24682538,-0.154499182,-0.531446066,0.832316106,-19472,-31848,-30730,-173,2,-143,1003,-559,863,1
249738388,19203,-3249,-23415,-0.954902999,0.245683398,-0.151159206,-0.565392042,0.810164561,7100,-11432,10664,1652,395,330,1017,-555,871,1
249758388,26093,-16345,-15893,-0.958646365,0.231284972,-0.149785238,-0.565142514,0.810589565,20770,27958,26170,21,696,-3,1013,-573,892,1
249778388,20790,-3433,-8595,-0.961937364,0.208698861,-0.161340762,-0.531379618,0.831080765,10042,-12132,-24022,-1642,768,161,997,-547,892,1
249798388,17027,5027,-5581,-0.966420565,0.16965894,-0.18051961,-0.481463367,0.857378108,2426,4278,-17146,-2257,756,253,993,-551,912,1
249818388,12783,7724,-801,-0.966380045,0.140377373,-0.203168474,-0.437851176,0.875642866,-6172,9154,-6358,-1899,724,270,987,-555,932,1
249838388,17327,3164,3991,-0.96680823,0.119647026,-0.213765863,-0.402256094,0.890192283,2950,-664,4176,-1607,735,328,995,-527,1001,1
249858388,15494,1914,4721,-0.967395421,0.100665567,-0.220687738,-0.365384161,0.904394239,-728,-3444,6346,-1662,745,281,985,-521,988,1
249878388,13070,3773,4666,-0.966870375,0.084907949,-0.229691033,-0.328605063,0.916309297,-5586,122,6800,-1635,669,226,981,-499,1033,1
249898388,11729,4059,7956,-0.965564076,0.080920888,-0.236658152,-0.29687741,0.925415559,-8246,502,13734,-1459,494,144,963,-489,1064,1
249918388,11287,3855,9238,-0.96428409,0.080644187,-0.24227502,-0.273679348,0.931174334,-9086,-96,16380,-1115,511,133,971,-477,1076,1
249938388,9770,4311,9179,-0.962700311,0.082012175,-0.248226686,-0.260250833,0.933522871,-12082,682,16252,-708,588,106,975,-471,1082,1
249958388,13053,3744,10102,-0.961363686,0.085970474,-0.252113007,-0.256579231,0.933538046,-5442,-676,17908,-288,506,181,961,-449,1096,1
249978392,11870,3890,7310,-0.959932148,0.091493946,-0.255823016,-0.262580991,0.93088929,-7764,-472,12040,149,424,170,971,-449,1126,1
249998388,10994,-717,5970,-0.960382212,0.084161585,-0.256553875,-0.268345397,0.929043813,-9486,-9748,9182,268,459,107,963,-431,1139,1
250018392,13526,-871,2041,-0.963130906,0.079497641,-0.247091478,-0.276799325,0.929020695,-4440,-10048,1548,333,459,72,945,-445,1157,1
250038392,10938,2230,-1803,-0.963900831,0.071630523,-0.24643359,-0.284711983,0.926787898,-9714,-3534,-5954,362,501,53,959,-437,1151,1
250058392,11339,2104,74,-0.963904355,0.064924149,-0.248053123,-0.294836454,0.923183342,-8914,-3836,-1980,458,480,151,943,-427,1187,1
250078392,16520,-1249,3818,-0.964645948,0.069911515,-0.243868924,-0.313178744,0.918185882,1492,-10706,5500,733,259,311,951,-425,1187,1
250098392,24358,-7913,4677,-0.961456884,0.082699262,-0.252684041,-0.326617222,0.911160313,17204,-24016,6644,608,-300,460,941,-415,1177,1
250118392,29123,-12732,8181,-0.957691427,0.107941216,-0.258124834,-0.317867901,0.912803596,26854,31708,12828,-351,-1078,241,965,-409,1179,1
250138392,32764,-10235,5652,-0.951518474,0.153585028,-0.258418984,-0.284437397,0.923727866,-31226,-28854,6302,-1394,-2229,-120,979,-409,1149,1
250158392,32764,-6544,-2921,-0.943322394,0.2095955,-0.249288885,-0.243939731,0.937658599,-30974,-21184,-12670,-1615,-2741,-630,1025,-347,1071,1
250178392,31122,-3090,-14453,-0.93415549,0.258008264,-0.238291967,-0.20022841,0.950713148,31584,-13924,28210,-1665,-2435,-820,1045,-345,1032,1
250198392,25046,657,-18915,-0.925916452,0.294693463,-0.227788932,-0.159754064,0.960839992,19716,-6092,18070,-1478,-1883,-829,1071,-273,970,1
250218392,19674,833,-15855,-0.920096537,0.319771064,-0.217453769,-0.114600485,0.969595058,9170,-5408,23364,-1616,-1407,-928,1077,-237,887,1
250238392,18609,-2071,-11234,-0.913927076,0.338283597,-0.215759878,-0.06276772,0.974707674,7242,-11164,31998,-1947,-1195,-716,1067,-205,859,1
250258392,15508,-532,-14061,-0.908634521,0.345831005,-0.226395882,-0.003387824,0.974387465,1210,-8426,26100,-2384,-830,-377,1079,-169,797,1
250278392,9826,6692,-13998,-0.912649009,0.316406932,-0.253630865,0.058964554,0.966107648,-10044,5428,26346,-2374,-365,-36,1083,-171,789,1
250298392,7655,7045,-12419,-0.916279566,0.28167003,-0.280886954,0.113459734,0.95394454,-14572,5328,30658,-2056,-80,74,1063,-163,757,1
250318392,7728,5888,-11152,-0.921773357,0.239453774,-0.302171034,0.165163716,0.940111628,-14630,2282,-30962,-1905,245,34,1055,-171,725,1
250338392,6361,3032,-9225,-0.922987796,0.221944017,-0.310846748,0.210585929,0.928231163,-17558,-3968,-25698,-1912,236,-50,1071,-149,751,1
250358392,7049,5486,-11403,-0.925787441,0.181217587,-0.330298129,0.269974597,0.906293115,-16160,572,-29570,-2251,-26,31,1049,-153,699,1
250378392,8662,9357,-11308,-0.923690826,0.14437747,-0.354923202,0.329851478,0.87731754,-12982,7658,-28044,-2420,-136,166,1061,-151,713,1
250398392,7042,11065,-10064,-0.918806085,0.110404355,-0.380822657,0.383024503,0.845099282,-16144,10386,-24376,-2232,-156,197,1055,-165,660,1
250418392,9066,7897,-4944,-0.914846046,0.10120688,-0.393082378,0.430883253,0.816318592,-11884,3228,-13172,-2281,-445,307,1059,-165,660,1
250438392,11683,4883,-78,-0.911659643,0.097270429,-0.402372446,0.480211571,0.783960126,-6540,-3076,-3318,-2393,-767,183,1045,-169,629,1
250458392,11674,8225,4021,-0.908682089,0.089852821,-0.411534221,0.52972267,0.74676176,-6554,3494,5314,-2588,-462,-45,1041,-187,602,1
250478392,14230,15493,10039,-0.911375104,0.061466631,-0.410584168,0.575822445,0.712165352,-1430,17898,18084,-2304,321,-168,1043,-175,562,1
250498392,15912,20041,14148,-0.916216146,0.041823229,-0.401034471,0.601356659,0.695661521,1792,27288,26930,-1177,435,-396,1055,-177,576,1
250518392,15021,18377,15156,-0.920470798,0.042611254,-0.389843924,0.592757847,0.708682995,-126,24300,28916,652,314,-370,1031,-171,588,1
250538392,17483,10556,14392,-0.925114132,0.0600712,-0.37499901,0.563176295,0.739529518,4634,9102,26828,1777,28,-453,1039,-151,584,1
250558392,17399,9996,18773,-0.930438517,0.086729955,-0.354655673,0.526344338,0.775144156,4286,8606,-30814,2144,-265,-614,1015,-143,584,1
250578392,1432,21318,-2344,-0.93543772,0.065298364,-0.344961973,0.488394234,0.803608274,-27822,31544,-6800,1972,1730,-186,1009,-113,621,1
250598392,10127,6904,-14859,-0.946050072,0.040019823,-0.318143329,0.410493331,0.856047986,-10848,3704,-31714,4212,1584,-994,1011,-93,656,1
250618392,20839,-7309,-30256,-0.953821259,-0.00069947,-0.293204176,0.324613117,0.900236651,10286,-24128,5186,3952,3082,-882,999,-79,740,1
250638392,26474,-3650,1995,-0.957545081,0.002391618,-0.27998132,0.281640908,0.918567238,21548,-16358,3930,1914,515,-485,981,-79,820,1
250658392,32764,-19694,-3350,-0.956439186,-0.015582718,-0.283223451,0.289675273,0.915105999,-31356,16990,-6188,-327,743,191,961,-71,795,1
250678392,29625,-340,6443,-0.959610824,-0.00275512,-0.272465269,0.343169659,0.899523638,27774,-9504,13004,-2240,-1108,-352,959,-41,780,1
250698392,16362,7392,425,-0.962117277,0.000598833,-0.262919086,0.391320474,0.882338725,1128,6410,878,-2060,-591,-511,945,-35,768,1
250718392,14279,13295,-7984,-0.965141118,-0.009423235,-0.250780285,0.409364004,0.877501486,-3074,18458,-15658,-727,307,-431,937,-17,743,1
250738392,15583,3005,-14165,-0.966052951,-0.01718414,-0.24667313,0.398586357,0.883586211,-492,-1990,-27770,524,535,-119,947,-9,736,1
250758392,19823,-2477,-12484,-0.965289693,-0.031714752,-0.248078402,0.398149859,0.883404797,8010,-13000,-23932,39,697,114,931,-13,756,1
250778392,16980,206,-9650,-0.964658808,-0.065109314,-0.244422311,0.415684942,0.876284024,2374,-7714,-17598,-605,770,190,921,-3,768,1
250798392,13886,2877,-7564,-0.961222382,-0.102113936,-0.244843708,0.432167886,0.868129922,-3760,-2234,-12146,-600,1012,183,925,-5,762,1
250818392,12663,3183,-4815,-0.956290212,-0.138518218,-0.245442743,0.440664794,0.8636554,-6048,-1608,-5288,-296,1278,135,941,-39,783,1
250838392,14694,1665,-3300,-0.951457197,-0.168129835,-0.24444577,0.440227119,0.864123534,-1780,-4734,-1126,81,1304,177,919,-23,807,1
250858392,14526,1420,-1718,-0.94750583,-0.189219402,-0.243964125,0.4367452,0.866023175,-1954,-5218,2840,191,1119,192,925,-27,844,1
250878392,12971,-21,-335,-0.942731071,-0.208558368,-0.24648382,0.432541929,0.867451018,-4956,-8036,6164,221,964,119,919,-23,851,1
250898392,11984,-1646,833,-0.938275661,-0.225829549,-0.248378823,0.430415271,0.868000729,-6782,-11346,9064,126,850,112,911,-33,898,1
250918392,12376,-2404,2411,-0.935004603,-0.239446687,-0.247417387,0.434564359,0.866178101,-5892,-12832,12670,-164,627,64,907,-33,890,1
250938392,14657,-1309,5366,-0.940451154,-0.230247442,-0.235029206,0.441767434,0.865855929,-1306,-10512,18792,-431,250,4,917,-31,897,1
250958392,19011,1808,7898,-0.941808296,-0.229857091,-0.229510448,0.452998092,0.861445915,7154,-3838,23328,-503,-59,-44,913,-23,890,1
250978392,16645,5661,7626,-0.947523782,-0.209843431,-0.225753556,0.461913014,0.857661596,2344,4102,22688,-578,-184,-100,895,-21,900,1
250998392,11915,8944,7833,-0.950245328,-0.193037899,-0.229436568,0.46228417,0.856505496,-7270,10804,22586,-239,85,-208,897,-17,865,1
251018392,8864,12301,3820,-0.948829602,-0.183555201,-0.243466464,0.445227534,0.861820361,-13442,17316,14018,585,285,-273,885,-9,869,1
251038392,9177,6965,1516,-0.948108193,-0.185842697,-0.244409793,0.414010091,0.877046375,-12726,6000,9132,1415,538,-179,879,-23,876,1
251058392,10681,2035,-995,-0.945437344,-0.189289944,-0.252041596,0.371681007,0.893832548,-9638,-4106,4232,1898,720,-5,859,-19,915,1
251078392,14054,-1747,-3495,-0.944190122,-0.195359901,-0.252192981,0.330649959,0.909833601,-2768,-12022,-624,1879,772,136,857,-23,941,1
251098392,15217,-3874,-3076,-0.944137532,-0.20171597,-0.24703303,0.30077539,0.921525821,-400,-16214,454,1372,704,145,847,-27,939,1
251118392,15423,-3026,-298,-0.945651565,-0.203133781,-0.239929621,0.278894398,0.930206012,-10,-14238,6222,947,596,80,857,-33,983,1
251138392,19160,-2568,3645,-0.949348593,-0.190817395,-0.235204786,0.257300613,0.937586021,7360,-13102,13892,869,229,108,823,-57,986,1
251158392,28361,-5950,3150,-0.950682361,-0.173981287,-0.243154265,0.243257552,0.939386269,25562,-19790,12006,646,-474,265,823,-59,980,1
251178392,32764,-3207,7024,-0.956481885,-0.13789227,-0.244100827,0.25280517,0.936615488,-31368,-14338,18580,-365,-1547,162,825,-67,974,1
251198392,32038,5668,6114,-0.963801391,-0.084307052,-0.240183236,0.274431676,0.931468127,32458,3534,15024,-891,-2402,5,851,-65,924,1
251218392,28656,10912,-4991,-0.968625603,-0.022283399,-0.235102063,0.286057603,0.929206006,25534,14184,-9216,-464,-2631,-122,841,-65,856,1
251238392,28001,11349,-14454,-0.970109411,0.035849821,-0.227922306,0.277180053,0.933630165,24182,15290,-30060,424,-2250,-233,871,-67,822,1
251258392,30195,7093,-10416,-0.969489239,0.090066483,-0.21587841,0.260619022,0.941169312,28598,7164,-23764,785,-2007,-385,877,-87,780,1
251278392,26814,5401,-12172,-0.966651343,0.13520699,-0.204907702,0.256421484,0.944705181,21930,4132,-28762,276,-1747,-363,867,-57,770,1
251298392,21919,4909,-10091,-0.961253256,0.175872646,-0.200067669,0.263060872,0.943887815,12322,3304,-25936,-208,-1674,-179,859,-71,746,1
251318392,14043,9222,-11474,-0.957275387,0.187886201,-0.209877108,0.274509434,0.938545173,-3214,11926,-29772,-303,-1358,-1,861,-45,701,1
251338392,10106,10135,-9982,-0.952770857,0.193927092,-0.224938625,0.276227959,0.934640821,-10976,13402,-26976,80,-1012,122,853,-55,671,1
251358392,8693,8387,-9448,-0.950199125,0.189753523,-0.239293379,0.264423301,0.934614953,-13708,9410,-25812,656,-492,262,867,-61,686,1
251378392,4695,4114,-12633,-0.952221166,0.168260789,-0.247011498,0.25144786,0.936265608,-21708,442,-31674,800,32,241,879,-73,673,1
251398392,355,4491,-13584,-0.953744583,0.143165931,-0.255927958,0.242866838,0.936217358,-30490,994,-32754,636,150,132,851,-61,694,1
251418392,-2,4553,-13003,-0.955095291,0.119214557,-0.263041448,0.233567748,0.936700223,-31270,908,-30812,693,115,28,861,-67,704,1
251438392,2128,5667,-11512,-0.955149287,0.12466771,-0.260259282,0.211058199,0.942787167,-27048,2902,-27110,979,113,62,869,-73,696,1
251458392,4810,3238,-10645,-0.954156445,0.133498212,-0.259591257,0.180366062,0.94933505,-21656,-1936,-25662,1294,53,198,863,-85,734,1
251478392,7215,-1276,-6655,-0.952644924,0.144529011,-0.259399263,0.146640377,0.955196997,-16798,-10958,-18042,1405,-12,246,853,-75,709,1
251498392,9864,-509,-242,-0.951860771,0.15132802,-0.258306943,0.116190515,0.959672896,-11474,-9390,-5440,1270,131,201,847,-85,751,1
251518392,15532,178,5977,-0.953097299,0.165106898,-0.24465494,0.076763049,0.96706376,-158,-7802,6750,1612,178,31,853,-85,752,1
251538392,21002,-431,7849,-0.956008431,0.168673687,-0.23004306,0.021166531,0.973334139,10650,-8338,10190,2361,508,-147,839,-87,741,1
251558392,19759,704,8167,-0.962992433,0.161719825,-0.203393351,-0.049151059,0.978076588,7910,-5222,11074,3022,1050,-535,839,-87,771,1
251578392,13322,-90,12580,-0.968561351,0.166319221,-0.169953293,-0.143093288,0.975063652,-5240,-5880,20328,3861,1339,-532,823,-81,813,1
251598392,12681,-2810,14428,-0.970687039,0.180408623,-0.140885312,-0.240592875,0.960276376,-6594,-10480,23616,4011,917,-167,823,-107,858,1
251618392,16984,-4513,10670,-0.972043198,0.179901367,-0.131727893,-0.315592211,0.939543968,2064,-13336,15484,3204,553,256,785,-127,897,1
251638392,8243,244,5585,-0.973637313,0.163111091,-0.141209469,-0.349216439,0.926144822,-15434,-4124,5838,1408,979,686,787,-141,913,1
251658392,26239,-5301,2885,-0.976919994,0.148561567,-0.133884756,-0.393416643,0.909281939,20442,-14978,918,1970,965,60,783,-153,963,1
251678392,20140,-3135,-3146,-0.982168347,0.11780756,-0.124859937,-0.392826587,0.910810523,8084,-10350,-10146,27,1358,-313,763,-163,963,1
251698392,29803,4516,4492,-0.982976429,0.114694946,-0.121237612,-0.40106646,0.90768712,27392,5072,5224,398,261,-49,755,-159,976,1
251718392,32764,3605,17175,-0.981762698,0.130145488,-0.115891821,-0.400033845,0.908840312,-32182,3422,30084,-5,-554,-166,745,-163,978,1
251738392,14601,3024,3651,-0.981538119,0.14128465,-0.104281621,-0.400056662,0.910227697,-2988,2730,2770,70,-244,-529,735,-153,981,1
251758392,14771,14996,-10337,-0.983188525,0.142269656,-0.085500888,-0.40949259,0.907964818,-2682,27196,-25334,517,93,-646,723,-149,999,1
251778392,10576,5314,-17634,-0.984353637,0.139265668,-0.075880598,-0.451476155,0.888627168,-11126,8144,25718,1941,367,-71,717,-141,966,1
251798392,24795,-7974,-18877,-0.985047249,0.132969042,-0.078499387,-0.487180091,0.869266197,17298,-18516,23432,1646,469,382,695,-179,997,1
251818392,20385,-6102,-11299,-0.985985428,0.121950647,-0.083859608,-0.487374242,0.868654773,8458,-14946,-26596,18,539,274,707,-163,1023,1
251838392,18005,1576,-5504,-0.988186168,0.098325904,-0.090654483,-0.471348485,0.876850437,3668,186,-14608,-695,516,253,699,-169,1046,1
251858392,14794,5028,391,-0.987782545,0.08673368,-0.103094662,-0.457384473,0.882845847,-2810,6900,-2108,-600,442,236,695,-165,1028,1
251878392,14068,4760,4882,-0.98672409,0.087732887,-0.112097943,-0.453755047,0.883632584,-4240,6052,7112,-162,310,163,701,-155,1025,1
251898396,13576,5157,7614,-0.984974351,0.097025735,-0.119724291,-0.457529403,0.880675381,-5186,6606,12420,158,188,124,685,-169,1030,1
251918396,13338,7439,6318,-0.982869316,0.107615575,-0.128334258,-0.476815902,0.869129531,-5604,11014,9394,892,111,78,689,-177,1025,1
251938396,11644,6554,3228,-0.981425762,0.114440126,-0.1336855,-0.51194787,0.848011835,-8946,9090,2842,1685,175,16,685,-191,1042,1
251958396,13068,1171,968,-0.982148511,0.115777602,-0.126932839,-0.554158786,0.821999883,-6066,-1820,-1854,2058,287,30,681,-199,1036,1
251978396,13324,-1339,940,-0.983221512,0.117899638,-0.115821382,-0.59242039,0.796425736,-5564,-6676,-2010,1908,187,85,667,-211,1089,1
251998396,12996,-2761,3746,-0.983175088,0.128309799,-0.105415708,-0.623850979,0.773448681,-6222,-9266,3444,1579,26,188,653,-233,1060,1
252018396,13474,-4117,5041,-0.982800348,0.137853067,-0.096453929,-0.645445677,0.756624652,-5256,-11750,5776,1092,73,279,655,-265,1062,1
252038396,11386,-3065,6995,-0.981806997,0.149162544,-0.09014652,-0.66102422,0.743791513,-9428,-9378,9478,776,166,278,631,-269,1093,1
252058396,12309,-2991,7029,-0.980803292,0.159255993,-0.083947013,-0.674314449,0.732446043,-7554,-9008,9178,675,157,250,641,-271,1091,1
252078396,11504,-2642,9983,-0.978575496,0.175764164,-0.077596346,-0.687256193,0.720979935,-9126,-8058,14700,664,84,193,613,-277,1116,1
252098396,12446,-2983,7189,-0.976132818,0.192665245,-0.068014025,-0.697615974,0.711882543,-7136,-8456,8374,559,-178,92,623,-299,1099,1
252118396,13376,3727,11071,-0.970085252,0.220797997,-0.070465527,-0.707017433,0.702262353,-5142,5294,15332,542,-507,78,611,-305,1088,1
252138396,19292,7257,12642,-0.961570237,0.256986659,-0.065889993,-0.718790462,0.690594485,7060,12358,16870,724,-1382,34,621,-305,1087,1
252158396,32764,6069,14485,-0.943835601,0.318525892,-0.05550074,-0.741415545,0.667052936,-30978,10318,18558,1419,-2439,32,609,-307,1053,1
252178396,32764,6785,10320,-0.919636818,0.385506636,-0.038374528,-0.76162874,0.645007357,-30190,12312,8034,1409,-2753,-170,653,-321,1010,1
252198396,30901,7153,-2090,-0.896558275,0.438089099,-0.020433099,-0.783547943,0.618892726,32388,13636,-18514,1590,-2205,-42,667,-329,1007,1
252218396,26245,5984,-13695,-0.876779262,0.47713282,-0.006317699,-0.806642635,0.588629706,23732,11764,22524,1664,-1669,250,701,-355,977,1
252238396,22328,7710,-14801,-0.859035984,0.508605823,0.005853813,-0.826758472,0.559858745,16486,15614,19276,1511,-1382,324,689,-349,971,1
252258396,18810,6699,-8690,-0.843149997,0.534295602,0.021603663,-0.842892997,0.534703536,9976,14106,30652,1394,-1156,140,715,-363,962,1
252278396,16046,-2437,-8574,-0.849426409,0.523134602,0.045084195,-0.855738644,0.512684725,4700,-3504,30540,1288,-465,-108,715,-385,963,1
252298396,8148,-3134,-9442,-0.849883541,0.52066943,0.058357559,-0.863059334,0.498375826,-11568,-4352,29598,877,162,-59,717,-381,955,1
252318396,5099,-2840,-8400,-0.853719894,0.514025532,0.060366624,-0.866824187,0.491449296,-17780,-3700,31892,345,383,152,719,-387,962,1
252338396,2600,-160,-7987,-0.865795905,0.494347479,0.050446907,-0.867139651,0.491969984,-23176,1332,-32172,-188,1029,399,713,-391,979,1
252358396,3721,-1048,-4303,-0.874492371,0.479609115,0.041105207,-0.868285507,0.490834653,-21216,-748,-24322,-102,780,418,697,-389,978,1
252378396,9681,-438,-4531,-0.879037628,0.472024171,0.030462798,-0.866459297,0.494890254,-9444,122,-24530,-339,453,352,695,-403,999,1
252398396,17487,-2704,-2250,-0.88878653,0.45406842,0.024382904,-0.867716091,0.493381228,6104,-4736,-19872,-121,229,437,681,-395,994,1
252418396,11920,-446,-1772,-0.896328744,0.438844249,0.014775393,-0.87027334,0.488826737,-5546,-406,-17918,55,787,505,669,-391,1013,1
252438396,10509,-471,2500,-0.905641679,0.419158539,0.011565267,-0.875313062,0.47971165,-8666,-562,-8734,353,968,355,647,-407,1024,1
252458396,15423,222,7962,-0.915424649,0.397186851,0.013359871,-0.881785277,0.467642112,818,908,2970,575,1136,187,627,-421,1033,1
252478396,16464,-2157,11246,-0.913801219,0.400644405,0.020343969,-0.881686635,0.467576921,2910,-3736,9528,97,158,-101,613,-405,1035,1
252498396,13357,-1992,11185,-0.909253655,0.410713671,0.02437029,-0.876271585,0.47752179,-3192,-3276,9152,-365,-22,-170,625,-431,1021,1
252518396,9861,1426,12446,-0.907912044,0.414308485,0.009777774,-0.864381088,0.499374237,-10218,3270,11728,-1083,507,84,599,-417,1024,1
252538396,11351,6189,11610,-0.906904198,0.416379642,-0.014588624,-0.853146203,0.518340733,-7160,12238,9878,-1029,407,210,601,-405,1031,1
252558396,13751,4943,10005,-0.903682914,0.42211061,-0.036047561,-0.844784677,0.530932998,-2198,8948,6340,-776,33,321,561,-403,1027,1
252578396,14524,10121,10234,-0.897517536,0.43091399,-0.070396021,-0.831015702,0.549028231,-456,18362,6468,-1185,-211,449,565,-395,1035,1
252598396,-20,18655,3754,-0.899673834,0.41275337,-0.128031959,-0.810036168,0.569796231,-29704,-31484,-5896,-1564,907,625,561,-383,1045,1
252618396,29182,15241,8819,-0.90068732,0.415032579,-0.11249533,-0.824795621,0.551464807,28842,26804,4040,1154,135,-124,549,-369,1051,1
252638396,30248,-12540,-11082,-0.925837969,0.360726705,-0.091631399,-0.837121636,0.536391839,30120,-28080,31574,1081,2612,-418,519,-373,1055,1
252658396,26709,1155,12040,-0.936227161,0.340407221,-0.055976618,-0.857543074,0.508089563,22714,478,12940,1857,1116,-806,471,-379,1097,1
252678396,32764,-3823,16841,-0.940713644,0.330971865,-0.031037994,-0.865335703,0.496796755,-30842,-8660,22842,888,537,-715,475,-395,1079,1
252698396,18913,11392,6505,-0.937043967,0.342234906,-0.018674742,-0.861537004,0.504014684,7116,22174,1796,-118,-402,-528,471,-385,1130,1
252718396,10646,10290,-11041,-0.945058137,0.319045393,-0.02698837,-0.866721518,0.494813798,-9446,20224,32306,546,186,-90,451,-369,1116,1
252738396,14608,8550,-12705,-0.949690433,0.305287477,-0.012609766,-0.887195343,0.457198849,-1930,16686,30138,1869,719,42,441,-401,1129,1
252758396,24880,-8285,-12060,-0.953363063,0.29374638,0.000604063,-0.905409366,0.419858456,18504,-16550,31802,1797,590,44,435,-411,1149,1
252778396,21054,-13539,-8376,-0.956586437,0.283015203,-0.002083718,-0.904893206,0.421016824,10760,-27146,-26028,-56,543,146,421,-417,1151,1
252798396,18200,3558,-5257,-0.962915845,0.260766428,-0.019531199,-0.893286519,0.445361774,4980,6640,-19546,-1172,383,238,423,-403,1157,1
252818396,14909,6271,-2921,-0.96778754,0.238571217,-0.040163714,-0.883022511,0.46393781,-1828,11566,-14024,-892,526,249,421,-405,1153,1
252838396,14508,2461,475,-0.971870841,0.218949845,-0.04897326,-0.877966601,0.472559895,-2802,3434,-6402,-405,663,173,395,-391,1155,1
252858396,13719,1545,4632,-0.97336773,0.210192379,-0.055390972,-0.873021873,0.480914008,-4488,1328,2486,-406,569,166,421,-395,1168,1
252878396,13057,2198,9869,-0.971398085,0.217334962,-0.062335295,-0.869116362,0.487136913,-5810,2430,13012,-334,271,174,381,-383,1182,1
252898396,12376,4473,9356,-0.968761399,0.226104639,-0.071871651,-0.86952056,0.485080652,-7094,6804,11674,46,198,191,379,-391,1177,1
252918396,12007,5596,7547,-0.967175428,0.230320198,-0.079805851,-0.877807692,0.468539363,-7772,8872,7830,740,325,180,377,-379,1181,1
252938396,12679,2664,6291,-0.96789363,0.227472,-0.079129397,-0.890459985,0.44395607,-6424,2844,5346,1135,568,148,375,-387,1194,1
252958396,12591,-1018,6352,-0.969265491,0.224618301,-0.06965846,-0.903116772,0.41907016,-6630,-4456,5578,1160,590,95,339,-405,1193,1
252978396,11388,-1905,3294,-0.971221022,0.216689801,-0.066987943,-0.911775403,0.40016309,-9056,-6004,-512,874,478,134,327,-425,1197,1
252998396,11603,-661,1698,-0.973850548,0.204107046,-0.067573343,-0.919337533,0.38219171,-8712,-3534,-3290,794,665,244,313,-409,1202,1
253018396,11069,-3275,-404,-0.976938168,0.188540025,-0.067722043,-0.927037124,0.362949513,-9882,-8766,-6982,851,790,224,287,-435,1227,1
253038396,13625,-7281,-540,-0.98124812,0.169486215,-0.053798113,-0.932632528,0.350681659,-4848,-16828,-6808,563,693,219,275,-439,1217,1
253058396,13338,-7451,-320,-0.984316841,0.153974583,-0.041333857,-0.933202431,0.350782117,-5534,-16768,-5832,19,544,188,241,-451,1218,1
253078396,13577,-2994,3465,-0.985356119,0.147806808,-0.038822668,-0.928906448,0.362418046,-5142,-7502,2184,-509,442,179,237,-433,1232,1
253098396,15946,-630,5808,-0.984965734,0.149978708,-0.039942946,-0.92446552,0.373534461,-412,-2646,6892,-484,220,126,207,-419,1230,1
253118396,19054,-551,7145,-0.982445747,0.165403783,-0.042477237,-0.92032674,0.383444756,5882,-2562,9056,-445,-332,173,195,-401,1244,1
253138396,25988,-473,13136,-0.977888232,0.189534573,-0.048071141,-0.914131688,0.397446228,19922,-2518,20066,-627,-938,170,201,-405,1245,1
253158396,27386,3812,17017,-0.968633054,0.232426729,-0.05002234,-0.906014739,0.415519496,23010,5988,26432,-777,-1736,-34,215,-393,1246,1
253178396,32049,3092,12436,-0.953064796,0.290684354,-0.048554035,-0.903009053,0.422252964,-32700,4594,15366,-249,-2381,-81,235,-395,1242,1
253198396,32749,3188,1100,-0.93358459,0.349198593,-0.045597604,-0.907013755,0.413863903,-30660,4882,-9226,423,-2403,62,279,-387,1251,1
253218396,31470,-3993,-15361,-0.91691404,0.391984066,-0.038709539,-0.917904615,0.389638409,-32666,-9254,21982,1133,-1733,194,283,-387,1217,1
253238396,29177,-3248,-11360,-0.900864525,0.428855812,-0.025216732,-0.922447452,0.37977707,28818,-7320,28770,654,-1531,-265,303,-409,1217,1
253258396,29898,-11414,-5725,-0.883542342,0.464193981,-0.016067945,-0.91688017,0.393671926,30830,-23354,-26654,-354,-1524,-549,333,-387,1215,1
253278396,26406,-2960,-6819,-0.86434171,0.498944839,-0.024344303,-0.899115231,0.432640431,24464,-6716,-29976,-1663,-1559,-486,329,-387,1205,1
253298396,16835,8390,-2991,-0.851720393,0.518673472,-0.05096172,-0.879587799,0.469546013,6028,15504,-23468,-1716,-1642,-298,373,-335,1217,1
253318396,12057,5992,-3714,-0.844562043,0.528449044,-0.068448474,-0.866684645,0.491101911,-3238,10118,-25310,-929,-1280,-253,375,-333,1222,1
253338396,9678,3507,-4888,-0.831493031,0.548457615,-0.069234169,-0.856936466,0.507515287,-7910,4748,-27740,-632,-924,-329,417,-289,1202,1
253358396,5381,1906,-5135,-0.821659455,0.562999738,-0.07040608,-0.845785879,0.525820822,-16170,1508,-28718,-723,-688,-389,427,-283,1203,1
253378396,3118,962,-6001,-0.815338809,0.571490392,-0.075630612,-0.830151401,0.549616806,-20490,-552,-30728,-1047,-429,-427,437,-263,1194,1
253398396,2631,847,-5980,-0.812775845,0.574029667,-0.083782122,-0.81200961,0.575119466,-21378,-1048,-30770,-1206,-160,-402,425,-223,1186,1
253418396,5008,-448,-8425,-0.811864566,0.57332301,-0.096495579,-0.790925875,0.602041863,-16598,-4054,29902,-1406,-37,-318,415,-199,1190,1
253438396,8839,1056,-9349,-0.812295338,0.569336157,-0.114842213,-0.769705215,0.626021724,-8950,-1642,28184,-1466,91,-78,419,-195,1165,1
253458396,5101,8476,-9570,-0.824251369,0.540981941,-0.158926722,-0.743330196,0.64822071,-16474,12348,28000,-1602,222,218,405,-173,1153,1
253478396,3358,9041,-7182,-0.825765468,0.530662626,-0.183482398,-0.725561772,0.661778502,-20362,12102,-31746,-1256,335,415,393,-175,1139,1
253498396,5493,2162,838,-0.830258777,0.52330683,-0.184268197,-0.729441883,0.657272425,-16222,-1680,-15474,213,489,213,419,-173,1144,1
253518396,6938,-3768,-2059,-0.837512817,0.515747277,-0.171969656,-0.731719341,0.658010213,-13572,-13142,-21018,324,517,-349,393,-167,1135,1
253538396,8103,-558,1915,-0.843444278,0.506875185,-0.169078624,-0.728046026,0.662822179,-11436,-6628,-12782,-121,485,-171,381,-189,1138,1
253558396,12718,-4778,10996,-0.848102013,0.501003681,-0.163062547,-0.722688923,0.670181211,-2382,-15286,5756,-461,534,88,375,-199,1157,1
253578396,16170,-1854,10597,-0.856749829,0.483861849,-0.169225923,-0.695045814,0.697495079,4258,-9482,5424,-1640,684,-240,355,-193,1127,1
253598396,19981,4395,12277,-0.859166078,0.465446016,-0.20526743,-0.646346297,0.734081589,11770,2104,9322,-2834,337,154,357,-199,1121,1
253618396,733,9074,13585,-0.839251822,0.466997217,-0.275503601,-0.58338959,0.764249241,-26520,9610,12462,-3717,-198,727,361,-167,1097,1
253638396,32764,22504,32201,-0.831792461,0.4553225,-0.316800103,-0.528753066,0.788615352,-27306,-30750,-16032,-2866,-354,385,343,-149,1074,1
253658396,20986,32764,-11415,-0.843404204,0.414148852,-0.343258296,-0.500542454,0.796768986,14318,-11040,29140,-1481,1489,486,337,-115,1087,1
253678396,14970,-3257,-6175,-0.880412953,0.371568834,-0.292265498,-0.547884393,0.784542557,1416,-16328,-25074,2622,2225,-511,303,-141,1092,1
253698396,32764,-21160,14377,-0.894616758,0.377730479,-0.231823001,-0.590355702,0.77276282,-29374,15676,16408,2526,545,-1556,277,-157,1105,1
253718396,32764,-6755,32764,-0.894083004,0.386864863,-0.21820701,-0.568493525,0.792824378,-29316,-20604,-12682,-864,-549,-922,277,-177,1119,1
253738396,15525,22573,-91,-0.897027882,0.3748735,-0.226808239,-0.517976874,0.824586501,1626,-27762,-12448,-2341,47,-564,267,-155,1094,1
253758396,1714,20618,-13422,-0.901037656,0.371518537,-0.215778239,-0.52268631,0.824479446,-26100,-31314,26516,348,318,-296,275,-139,1097,1
253778396,19262,-2545,-24087,-0.90498732,0.371710271,-0.197674943,-0.573059972,0.794758759,8838,-11530,5198,2500,639,268,259,-149,1093,1
253798396,31014,-21236,-18838,-0.90992707,0.361500144,-0.193536277,-0.586953994,0.785512326,32206,16762,16014,716,692,151,267,-177,1089,1
253818396,19472,-4487,-11274,-0.912886769,0.343173586,-0.212352085,-0.556424055,0.802893028,9016,-15882,31748,-1572,546,262,253,-165,1110,1
253838400,17789,5972,-3580,-0.918382501,0.308249643,-0.242013529,-0.504238546,0.829029139,5592,4186,-17698,-2436,418,313,245,-159,1097,1
253858400,14313,9184,449,-0.919462105,0.278096868,-0.27275364,-0.45924847,0.84588596,-1548,9818,-8422,-2009,566,337,259,-139,1101,1
253878400,14136,6862,2719,-0.92086673,0.252254819,-0.292850906,-0.42723418,0.856250748,-1944,4402,-2896,-1417,690,305,245,-119,1062,1
253898400,13885,3536,3258,-0.923545953,0.227458356,-0.30481831,-0.402901009,0.864103399,-2500,-2784,-934,-1098,815,297,249,-117,1059,1
253918400,13186,3051,3624,-0.925493762,0.207011752,-0.313817848,-0.379723236,0.871583842,-3946,-4104,520,-1060,691,301,247,-101,1072,1
253938400,12186,698,5488,-0.926972764,0.196698753,-0.316095134,-0.356350884,0.880670011,-5978,-9030,4758,-1132,443,225,235,-109,1057,1
253958400,10718,105,6661,-0.928890307,0.178244881,-0.321488458,-0.331695594,0.888471812,-9012,-10146,7484,-1046,530,66,253,-75,1039,1
253978400,11058,3832,5271,-0.930804048,0.162446542,-0.32427922,-0.315209009,0.893530821,-8390,-2778,5220,-683,532,46,245,-77,1061,1
253998400,13795,2280,7733,-0.931696123,0.16259045,-0.321524122,-0.311940525,0.895614635,-2944,-5944,10464,-267,415,95,249,-81,1024,1
254018400,13817,-1069,8007,-0.933506662,0.165129941,-0.314399633,-0.31060387,0.898444964,-2906,-12604,10954,-215,360,163,227,-67,1022,1
254038400,12483,-1000,5879,-0.936694253,0.161418162,-0.306263463,-0.30135167,0.904235147,-5666,-12216,6744,-516,433,78,221,-69,1030,1
254058400,12010,1281,5720,-0.938526485,0.158553293,-0.301974451,-0.295294207,0.907600394,-6722,-7364,6516,-355,449,58,213,-71,1059,1
254078400,11840,664,2662,-0.940559302,0.14299266,-0.303062478,-0.292844865,0.908045694,-7148,-8452,640,-81,725,86,223,-85,1030,1
254098400,14224,-1489,-1094,-0.945388453,0.125379337,-0.295014265,-0.294519931,0.910002615,-2396,-12864,-6482,120,631,211,217,-81,1054,1
254118400,14341,-937,393,-0.948042065,0.117208233,-0.289556011,-0.297393948,0.910730114,-2274,-11558,-3140,133,362,275,227,-73,1057,1
254138400,14654,-2926,3309,-0.950293012,0.117393367,-0.281701003,-0.299141772,0.912497923,-1718,-15390,2880,9,218,294,231,-89,1067,1
254158400,22112,-4461,2767,-0.946777018,0.123412235,-0.291179493,-0.296052976,0.910674704,13194,-18330,1490,-116,-211,428,235,-91,1061,1
254178400,26482,-10214,4217,-0.942411801,0.136328598,-0.300268278,-0.279304167,0.913194081,22076,-30122,3968,-697,-694,331,243,-69,1060,1
254198400,32306,-9378,5851,-0.935735911,0.168217128,-0.305466175,-0.242004905,0.922204537,-31618,-28620,6214,-1546,-1785,22,271,-87,1048,1
254218400,32764,-4584,266,-0.926505422,0.212631864,-0.306498796,-0.189754985,0.93408224,-30424,-19072,-6392,-2117,-2536,-331,307,-65,1022,1
254238400,31174,-923,-11010,-0.915991852,0.257085811,-0.30436512,-0.142589791,0.94311644,32282,-11678,-30410,-1846,-2478,-506,341,-41,979,1
254258400,30511,-2242,-16232,-0.906638138,0.295359729,-0.297758288,-0.110406183,0.949422238,31284,-14106,23412,-1171,-2006,-581,349,-41,956,1
254278400,29193,1871,-14675,-0.898383284,0.326946435,-0.289436195,-0.067157917,0.95589301,28912,-5620,25494,-1543,-1832,-836,397,-29,913,1
254298400,19190,90,-12490,-0.889623053,0.349847769,-0.290012443,-0.010926835,0.958029723,9190,-9202,29116,-2124,-1637,-724,395,-35,895,1
254318400,16882,2739,-9242,-0.890305733,0.342936259,-0.297595308,0.049548274,0.954623144,4854,-4182,-30386,-2141,-1263,-417,399,-9,832,1
254338400,16361,4622,-8668,-0.891275907,0.328751935,-0.311136574,0.106848162,0.945807736,3730,-766,-28754,-2102,-902,-217,427,-9,790,1
254358400,11251,5369,-8352,-0.892439304,0.308157666,-0.329309354,0.158574801,0.932675175,-6564,292,-27508,-1903,-652,-84,417,-7,767,1
254378400,7174,5592,-7996,-0.889526149,0.302945277,-0.341568845,0.20309126,0.919784497,-14834,196,-25898,-1916,-378,-69,403,-13,723,1
254398400,4796,5832,-7664,-0.888918802,0.292054249,-0.353304855,0.246106222,0.90502484,-19554,322,-24890,-1870,-147,-71,435,-29,724,1
254418400,4315,4955,-8944,-0.890098225,0.276765373,-0.363257157,0.284217019,0.890071433,-20550,-1738,-26952,-1675,108,-59,425,-17,696,1
254438400,4977,5196,-9801,-0.892393034,0.258089118,-0.371844306,0.319462478,0.874691507,-19300,-1518,-28054,-1566,291,-50,423,-39,697,1
254458400,7663,3777,-9439,-0.893539596,0.241753234,-0.380602478,0.354384989,0.857582413,-13968,-4622,-26796,-1587,162,-19,425,-33,685,1
254478400,9262,2032,-9021,-0.89324154,0.227708843,-0.390686514,0.389277428,0.838055801,-10760,-8418,-25498,-1641,17,47,417,-27,677,1
254498400,8662,6622,-11912,-0.895000611,0.187099658,-0.410367819,0.437122352,0.805365851,-11926,374,-30752,-1974,-63,106,415,-25,660,1
254518400,7820,11559,-8899,-0.890572995,0.148668235,-0.437634776,0.476133645,0.769605031,-13652,9638,-23266,-1847,137,246,425,-47,649,1
254538400,9541,9132,172,-0.885662159,0.137782833,-0.451963185,0.50022289,0.746533554,-10076,4218,-4268,-1283,-186,68,433,-55,672,1
254558400,11158,6613,6151,-0.88512536,0.142107634,-0.45183206,0.519622497,0.733198058,-6760,-1040,7938,-1068,-249,-173,427,-53,633,1
254578400,16737,7151,11459,-0.888456954,0.14273168,-0.443899998,0.532511044,0.728108756,4356,230,18242,-463,-180,-345,417,-43,635,1
254598400,15375,8742,16059,-0.896772863,0.138584744,-0.426038671,0.541767916,0.730673416,1362,3942,27574,-100,211,-697,403,-31,625,1
254618400,16147,9838,19074,-0.907097746,0.123711852,-0.406018059,0.52925586,0.749813667,2556,6728,-31434,1000,1186,-626,391,-47,655,1
254638400,16024,9028,14865,-0.915944798,0.120825676,-0.384188721,0.494832972,0.783063127,2006,5766,25794,2037,1065,-575,405,-41,661,1
254658400,16930,5827,11441,-0.920375179,0.14010196,-0.365066702,0.4621366,0.810982337,3682,-50,18302,1840,-41,-477,397,-41,692,1
254678400,6687,7612,19179,-0.915865719,0.190959541,-0.35255479,0.442344785,0.826998426,-16660,3902,32116,1118,-1738,-264,397,-45,692,1
254698400,4631,8506,-14242,-0.928329734,0.156027954,-0.335701353,0.40374198,0.852958377,-21174,6592,31126,2431,1356,-680,375,-47,708,1
254718400,17999,-4040,-22905,-0.947014391,0.101859208,-0.298906476,0.366870342,0.881982116,4886,-17752,16458,2055,3106,-1175,363,-41,733,1
254738400,32125,61,11844,-0.945806008,0.138397839,-0.287655082,0.350032467,0.892335813,-32292,-9176,19158,868,-1221,-299,351,-57,776,1
254758400,32764,-12967,-3179,-0.94798293,0.10975524,-0.292618535,0.367896259,0.883543162,-31084,30148,-9948,-801,1061,155,343,-33,783,1
254778400,23334,4602,2266,-0.9509627,0.104156082,-0.28432765,0.412800036,0.866020566,15486,6,1134,-1882,-246,-488,323,-47,770,1
254798400,16669,3059,-6960,-0.957789307,0.078795766,-0.269135073,0.446535712,0.853812074,2008,-2664,-16946,-1209,226,-599,335,-35,748,1
254818400,17143,4822,-9533,-0.960737739,0.049871726,-0.265372814,0.469005562,0.842795258,2826,1064,-21204,-810,424,-175,337,-41,740,1
254838400,17504,2467,-12335,-0.961168604,0.034962144,-0.264499799,0.481198849,0.836052937,3496,-3636,-25802,-548,575,4,325,-57,761,1
254858400,18718,517,-9961,-0.960870061,0.012392571,-0.267600191,0.49927197,0.824394813,5942,-7632,-20328,-849,792,164,323,-43,735,1
254878400,16342,3729,-9223,-0.959283948,-0.033923002,-0.272136825,0.522441804,0.808471007,1244,-1392,-17776,-960,1184,302,353,-39,742,1
254898400,13121,6941,-7220,-0.953941315,-0.080005981,-0.28069984,0.537748307,0.79547777,-5106,4966,-12162,-652,1388,237,343,-53,744,1
254918400,11290,4668,-4386,-0.949283095,-0.115327785,-0.283254067,0.538416218,0.794117507,-8546,174,-4976,-19,1583,169,337,-63,737,1
254938400,12324,239,-2811,-0.943212615,-0.147143694,-0.288533272,0.529616162,0.798235621,-6274,-8850,-790,441,1572,217,347,-49,770,1
254958400,16883,-2282,-1566,-0.939892575,-0.173061514,-0.284522377,0.52126826,0.805097235,3086,-14146,2612,480,1428,315,353,-77,786,1
254978400,18248,-3332,511,-0.938991338,-0.187792355,-0.277279544,0.52250002,0.806686126,5882,-16048,7370,-11,964,309,343,-65,783,1
254998400,17170,-2452,1535,-0.94079759,-0.192584852,-0.267517654,0.532842539,0.803052625,3670,-13934,9630,-472,477,242,341,-77,820,1
255018400,14933,-668,3196,-0.943182135,-0.19500977,-0.25630439,0.546205273,0.797508072,-896,-9906,13162,-685,488,91,347,-79,787,1
255038400,9993,4811,4017,-0.943010626,-0.205294678,-0.248284339,0.563433141,0.78785257,-10922,1570,14766,-823,303,-94,333,-71,808,1
255058400,12582,9480,3297,-0.942898283,-0.200110096,-0.253672634,0.568196366,0.782776153,-5748,11108,13516,-405,229,-108,339,-73,779,1
255078400,11546,9291,2929,-0.941555573,-0.193131948,-0.264282467,0.557518445,0.787097439,-7796,10412,12540,350,336,-83,329,-57,814,1
255098400,12904,7864,753,-0.93825059,-0.195182325,-0.274746666,0.530695669,0.802143982,-4972,7098,8142,1188,803,-101,339,-85,810,1
255118400,12357,5971,362,-0.93521167,-0.197805706,-0.283559188,0.496896027,0.820747605,-5948,2934,7438,1514,917,-112,323,-67,845,1
255138400,12463,2684,4773,-0.937041722,-0.18836458,-0.283865629,0.459877543,0.842025124,-5676,-3854,16242,1557,807,-211,311,-67,838,1
255158400,14571,-263,2825,-0.939772604,-0.181631286,-0.278953895,0.419334481,0.864535417,-1524,-9810,11970,1768,781,-167,315,-85,866,1
255178400,11766,221,-1595,-0.939233759,-0.182902502,-0.280188577,0.384932688,0.880086316,-7258,-8622,2814,1540,582,-191,315,-99,872,1
255198400,10700,2246,-2437,-0.939010205,-0.180503087,-0.28235522,0.351601262,0.893320136,-9386,-4640,1054,1470,413,-137,301,-105,898,1
255218400,12358,3348,-1603,-0.9377518,-0.178570278,-0.28814159,0.317477316,0.904326908,-6026,-2618,2656,1499,442,9,287,-125,930,1
255238400,14987,1898,590,-0.938704394,-0.166544737,-0.292695145,0.278757893,0.91568294,-716,-5814,6846,1630,322,140,295,-125,934,1
255258400,26272,-1823,-2058,-0.937599221,-0.150797535,-0.305437397,0.241175273,0.922434827,21806,-13504,838,1635,-87,305,295,-149,942,1
255278400,30778,300,1467,-0.939235233,-0.12337091,-0.313441649,0.216068376,0.926146967,30766,-9506,6982,1089,-754,227,299,-155,956,1
255298400,26379,5074,6073,-0.943122489,-0.085439125,-0.314969511,0.20124919,0.929008171,21840,-6,14956,641,-1345,49,325,-177,963,1
255318400,30959,6981,908,-0.945404351,-0.037091853,-0.318085247,0.184839904,0.931428073,30916,3710,3050,706,-1760,136,351,-179,972,1
255338400,32764,5201,-10375,-0.945406066,0.017674288,-0.320590976,0.1585414,0.935481958,-31014,68,-21308,1108,-1903,143,351,-197,936,1
255358400,32764,9775,-14443,-0.946885355,0.074156715,-0.307559257,0.141222723,0.94234748,-31066,9624,-31294,786,-2082,-439,383,-225,930,1
255378400,25294,13915,-9760,-0.947153568,0.129539303,-0.2872887,0.131512135,0.94977849,19524,18538,-23746,542,-2125,-718,415,-215,884,1
255398400,20132,12244,-9055,-0.945129193,0.175815247,-0.268293791,0.117385365,0.956901027,9272,15798,-23856,744,-1685,-611,421,-219,881,1
255418400,20816,6610,-7902,-0.942486338,0.215676449,-0.247333776,0.09726657,0.964554042,10730,5194,-22860,1026,-1352,-608,435,-229,871,1
255438400,16499,6278,-9768,-0.943448972,0.227645807,-0.233573629,0.084860938,0.969043953,2208,5110,-27632,885,-1054,-492,443,-225,834,1
255458400,9981,6318,-8565,-0.943881148,0.232672101,-0.226423318,0.068995513,0.971944299,-10868,5566,-25452,1008,-820,-370,447,-231,813,1
255478400,8147,3349,-8659,-0.941805143,0.254508667,-0.209442258,0.049756488,0.976801058,-14588,-118,-25646,962,-624,-413,445,-243,830,1
255498400,8955,1348,-9896,-0.948404998,0.242429888,-0.19437127,0.045689296,0.980045153,-12944,-3622,-28566,554,-372,-449,457,-223,811,1
255518400,8372,2277,-10885,-0.953470193,0.226521073,-0.188258404,0.056387641,0.980653821,-14310,-1498,-30036,-112,-359,-341,453,-237,817,1
255538400,5726,4470,-9920,-0.950734768,0.239928983,-0.183783376,0.069346769,0.980643859,-19722,2950,-27692,-444,-562,-240,469,-221,805,1
255558400,6234,4068,-8785,-0.945831925,0.259969883,-0.182153188,0.078433767,0.980255179,-18532,2198,-26088,-315,-835,-99,463,-227,806,1
255578400,7947,2580,-7764,-0.940489277,0.279803034,-0.180886104,0.077204034,0.980583992,-14928,-736,-24698,88,-754,22,481,-217,788,1
255598400,7670,4372,-7983,-0.938504308,0.289230965,-0.176358879,0.069017082,0.98200532,-15416,2994,-25446,401,-249,-21,479,-219,778,1
255618400,8212,8008,-747,-0.935039682,0.302404743,-0.172612129,0.052558674,0.983679932,-14222,10388,-11402,713,-356,113,477,-229,767,1
255638400,11497,4233,8252,-0.922703365,0.344601331,-0.160176268,0.021660704,0.986916713,-7364,3368,5448,1389,-1208,-186,479,-235,764,1
255658400,18269,-1483,11372,-0.918894164,0.365787908,-0.13265792,-0.020275729,0.990975296,6404,-7302,10770,2016,-530,-380,479,-229,760,1
255678400,17301,-6236,13177,-0.921408324,0.370358165,-0.09807942,-0.059048569,0.993418364,4388,-15682,14226,2003,129,-672,477,-225,782,1
255698400,14105,-6360,13528,-0.925752372,0.36561428,-0.070723154,-0.083599001,0.9939702,-2138,-15036,15082,1357,417,-612,463,-245,782,1
255718400,12168,2694,12568,-0.928937778,0.360940438,-0.050120392,-0.11273892,0.992334908,-6266,3852,13696,1452,884,-434,463,-245,774,1
255738400,17591,8473,12982,-0.932071596,0.354373645,-0.036500236,-0.162556978,0.985976418,4616,15752,14364,2129,468,265,451,-227,802,1
255758404,-2082,11597,15775,-0.917414963,0.385817653,-0.073212497,-0.15385833,0.985331489,30984,21356,19602,-638,-394,657,469,-237,825,1
255778404,30502,12483,3581,-0.917470178,0.386686927,-0.06738976,-0.182844855,0.980765995,30930,22760,-5506,1218,140,297,481,-225,791,1
255798404,27350,1124,1683,-0.929435156,0.359879037,-0.047433914,-0.210789096,0.976297675,24226,694,-8418,1393,1347,-271,467,-231,810,1
255818404,15445,-6148,-2178,-0.942699339,0.326568656,-0.020512928,-0.243036697,0.969701616,138,-13340,-15442,1506,1073,-66,465,-241,848,1
255838404,10526,2543,-11171,-0.960901923,0.268959444,-0.006915617,-0.251848424,0.967644094,-10208,5014,-31962,606,1492,-535,449,-225,847,1
255858404,14406,627,-11743,-0.970824897,0.230266333,0.004424974,-0.276598057,0.960857583,-2826,1434,-31772,1158,757,-160,453,-243,866,1
255878404,20270,-1311,-6989,-0.972751666,0.21998637,0.009465743,-0.28999849,0.956827864,8646,-2310,-21176,631,526,-14,467,-231,874,1
255898404,17472,2603,-6138,-0.979365287,0.189293277,0.007483021,-0.295149157,0.955278812,2954,5594,-18964,250,745,9,461,-233,863,1
255918404,16179,1194,-5869,-0.984802408,0.158285437,0.00329811,-0.297487974,0.954575744,162,2568,-17396,104,775,155,439,-223,871,1
255938404,17062,-1609,-7749,-0.989694946,0.123561336,-0.000517637,-0.298250861,0.954344481,1756,-3318,-20052,20,880,318,451,-229,881,1
255958404,17668,-3043,-5634,-0.992969995,0.091443157,-0.00243339,-0.292306403,0.956179317,2824,-6324,-14632,-252,937,304,447,-251,878,1
255978404,16589,-423,-3158,-0.994944425,0.062684378,-0.00844975,-0.281622166,0.959350651,578,-1156,-8606,-444,958,307,437,-221,889,1
255998404,16469,1567,-2270,-0.996067388,0.034455573,-0.017084744,-0.271022119,0.962292239,294,2650,-5830,-428,1027,292,443,-223,899,1
256018404,15504,2420,-1122,-0.99630541,0.005646145,-0.025302579,-0.266737316,0.963308757,-1654,4138,-2498,-155,1165,231,419,-225,915,1
256038404,15123,2394,-308,-0.995660037,-0.025204035,-0.032444851,-0.269926339,0.962200789,-2394,3848,222,164,1352,193,419,-233,923,1
256058404,14684,775,36,-0.99398938,-0.059349377,-0.035515441,-0.283052558,0.958298977,-3214,402,2088,584,1571,136,419,-251,912,1
256078404,14949,-441,547,-0.991200605,-0.094078431,-0.036832476,-0.305338856,0.951360594,-2582,-2154,4322,973,1699,114,399,-231,932,1
256098404,14934,-401,534,-0.987308184,-0.127216542,-0.038111659,-0.329569094,0.943159506,-2480,-2116,5418,1066,1685,68,393,-231,969,1
256118404,16441,140,1118,-0.982759299,-0.157628568,-0.040081533,-0.35115096,0.935229778,700,-1064,7638,952,1652,36,379,-255,974,1
256138404,16869,-733,-1108,-0.977693478,-0.185756076,-0.039289951,-0.367697692,0.928854924,1712,-2834,4002,742,1431,-2,357,-257,979,1
256158404,16536,1,-1240,-0.973406127,-0.206824649,-0.039815889,-0.37979077,0.92393872,1198,-1342,4434,550,1146,21,369,-249,987,1
256178404,16277,-732,-1200,-0.968947854,-0.226822855,-0.037805733,-0.387094073,0.920976302,834,-2784,5184,332,1123,4,359,-255,1015,1
256198404,16083,572,-2849,-0.963347688,-0.249308825,-0.037443312,-0.390084673,0.919724159,612,-86,2550,145,1127,16,349,-255,1043,1
256218404,15423,1748,-3271,-0.95771917,-0.269507304,-0.03980802,-0.392205559,0.918718211,-528,2262,2354,114,1021,43,323,-241,1028,1
256238404,15177,808,-3803,-0.951675203,-0.289722504,-0.039504672,-0.396721151,0.91677898,-834,326,1910,213,975,-17,321,-251,1035,1
256258404,16047,2353,-4283,-0.945597757,-0.308612812,-0.041077423,-0.40172426,0.914521065,1116,3456,1602,217,967,-63,311,-241,1059,1
256278404,14461,2793,-4364,-0.940936498,-0.321925716,-0.043803067,-0.408341058,0.911444737,-1910,4286,1858,285,718,-91,313,-251,1059,1
256298404,14528,2137,-2251,-0.93744554,-0.33172028,-0.047273345,-0.41836343,0.906704873,-1608,2822,6538,446,750,-70,287,-257,1077,1
256318404,15184,2075,-3259,-0.933588792,-0.341732461,-0.050726059,-0.433462333,0.89936642,-188,2570,4816,669,725,-138,291,-245,1076,1
256338404,14834,4434,-2155,-0.929679958,-0.350878496,-0.058792064,-0.452195691,0.889561903,-742,7168,7390,830,789,-196,281,-263,1087,1
256358404,15612,953,-2456,-0.925113674,-0.362003835,-0.062669656,-0.474730968,0.877428412,978,-150,7156,1035,902,-166,269,-249,1076,1
256378404,16137,1435,-2513,-0.921023611,-0.371335061,-0.067450805,-0.495851945,0.865260674,2168,682,7358,991,842,-151,271,-277,1099,1
256398404,18183,1304,-124,-0.920686714,-0.371230759,-0.072985905,-0.514100716,0.854050986,6330,220,12256,882,598,-57,269,-285,1096,1
256418404,22276,3443,-1159,-0.919050353,-0.373745311,-0.07993738,-0.533865301,0.841152709,14430,4270,9934,1017,281,-45,261,-277,1139,1
256438404,23872,5703,2397,-0.921159469,-0.367368588,-0.085435961,-0.547810156,0.831556484,17552,8612,16834,744,-130,4,265,-277,1137,1
256458404,23666,7571,4863,-0.929448508,-0.344445124,-0.091390475,-0.56305912,0.820618099,16866,12152,21020,821,-839,6,273,-291,1124,1
256478404,19743,13598,3471,-0.940572837,-0.310405495,-0.100488294,-0.576105557,0.810400933,8650,23908,17128,782,-1309,180,283,-303,1131,1
256498404,17757,12249,4064,-0.950948697,-0.271046553,-0.116988847,-0.596417638,0.793260423,4332,20674,17030,1254,-1459,375,305,-303,1122,1
256518404,21135,8407,-263,-0.960153125,-0.225715645,-0.137630619,-0.629165128,0.764018029,10774,12316,6908,1960,-1575,413,353,-329,1133,1
256538404,26290,4249,-8222,-0.967657944,-0.178697499,-0.155031056,-0.676577304,0.718696039,20824,3434,-10536,2775,-1475,191,371,-371,1117,1
256558404,27259,2723,-14805,-0.974773075,-0.131142193,-0.158464037,-0.720388051,0.673731064,22528,268,-25260,2568,-1480,-218,387,-389,1108,1
256578404,25643,2339,-13797,-0.982275389,-0.077787237,-0.148069614,-0.750459664,0.642352415,19062,-160,-25008,1732,-1853,-557,431,-391,1096,1
256598404,25967,-2669,-10218,-0.988310702,-0.014861036,-0.127436647,-0.772164235,0.620517222,19506,-9506,-19910,1227,-2331,-846,445,-391,1070,1
256618404,25492,-3655,-10563,-0.990439413,0.045808431,-0.102292387,-0.786925385,0.606331414,18490,-10658,-22592,863,-2294,-955,477,-393,1055,1
256638404,23709,407,-10923,-0.988071864,0.105866741,-0.080805945,-0.7920324,0.602916878,15008,-1832,-25290,323,-2344,-799,517,-387,1017,1
256658404,20152,1954,-10336,-0.981125992,0.166611489,-0.06272968,-0.792720111,0.604115961,8118,1854,-26104,103,-2401,-674,535,-385,1003,1
256678404,16373,1565,-9284,-0.975499742,0.203505201,-0.048014463,-0.790139623,0.609161867,900,1602,-25852,-49,-2252,-625,575,-345,938,1
256698404,13971,662,-8653,-0.969379451,0.234012328,-0.034113493,-0.783107931,0.619194625,-3682,222,-25626,-300,-2053,-617,577,-341,939,1
256718404,11271,-1226,-9284,-0.963977648,0.257072976,-0.01990655,-0.768806707,0.637541793,-8860,-3196,-27732,-749,-1874,-625,601,-331,913,1
256738404,8559,-234,-9499,-0.95245954,0.296489989,-0.012447911,-0.749110658,0.660592182,-14132,-876,-28688,-1059,-1580,-569,593,-307,891,1
256758404,5894,983,-8826,-0.941213652,0.330960214,-0.007547093,-0.730379267,0.681420846,-19072,1722,-28488,-994,-1396,-489,623,-311,839,1
256778404,4717,3641,-8127,-0.93096159,0.35901662,-0.006723119,-0.714393802,0.698239123,-21084,7062,-28012,-847,-1131,-300,619,-303,848,1
256798404,4121,4090,-8176,-0.922287405,0.380887268,-0.009567451,-0.704061985,0.708674667,-21986,7870,-28832,-573,-875,-57,627,-287,836,1
256818404,2313,5908,-7146,-0.913816452,0.400783634,-0.016253766,-0.696874637,0.715668127,-25324,11284,-27424,-455,-797,146,631,-283,808,1
256838404,3498,5754,-5875,-0.9066446,0.416693475,-0.02052476,-0.695922041,0.716488561,-22718,10838,-25406,-90,-623,193,619,-291,796,1
256858404,5634,2485,-1334,-0.902380219,0.426332068,-0.010550395,-0.708532324,0.70419514,-18306,4626,-16640,846,-332,-13,629,-301,781,1
256878404,5967,1153,-974,-0.90005083,0.431369795,0.002881149,-0.719265584,0.693244403,-17564,2404,-16084,823,-136,-173,633,-287,773,1
256898404,6190,3240,-240,-0.897530425,0.436495027,0.009355452,-0.723293658,0.688947087,-17034,6790,-14784,357,-143,-78,635,-311,778,1
256918404,11185,1612,4006,-0.894200251,0.443393996,0.006901703,-0.724203486,0.688021926,-6932,3450,-6518,28,-224,170,621,-305,789,1
256938404,14696,-2726,6030,-0.891720327,0.448418198,0.001415909,-0.718460768,0.694067717,202,-5570,-2700,-465,-228,289,631,-311,762,1
256958404,13851,-4893,7329,-0.890680738,0.450389594,-0.008688529,-0.700284101,0.712431444,-1498,-10372,-80,-1261,10,290,631,-307,774,1
256978404,14651,-3141,6504,-0.890906168,0.448991474,-0.031699615,-0.665865639,0.744248938,116,-7540,-1734,-2216,36,282,631,-303,772,1
256998404,13844,2763,5665,-0.889567656,0.446933484,-0.071858754,-0.623388637,0.777636193,-1472,3280,-3366,-2598,-62,418,633,-313,768,1
257018404,13190,6789,6400,-0.886247694,0.44348694,-0.118846312,-0.581788609,0.80381283,-2716,9992,-1742,-2437,-40,543,623,-319,760,1
257038404,14028,11583,7190,-0.883187458,0.433978749,-0.167452711,-0.544036791,0.821600331,-976,18136,150,-2107,167,600,627,-337,751,1
257058404,7110,15009,10579,-0.868131705,0.442285618,-0.218515747,-0.506441016,0.833912894,-14496,23506,6892,-2028,-418,518,627,-351,734,1
257078404,5892,20595,-3263,-0.881861262,0.39886434,-0.245684406,-0.478321128,0.843202662,-17138,-32320,-19584,-1511,1693,546,629,-347,751,1
257098404,28640,20568,19653,-0.887766274,0.392747229,-0.233454912,-0.482279688,0.844296262,28186,-31978,26436,335,449,-351,615,-339,764,1
257118404,21078,4705,-11278,-0.905854162,0.363598876,-0.208772292,-0.511333477,0.833345167,12448,2614,31080,1558,1776,-391,597,-335,766,1
257138404,17437,1388,-4808,-0.934963137,0.309437245,-0.16220788,-0.569434196,0.80531512,4354,-2582,-20220,3190,2420,-712,589,-347,796,1
257158404,32073,-26206,9389,-0.948190797,0.290881215,-0.107444348,-0.618901152,0.777139535,-32534,9602,9298,2895,1307,-1369,585,-341,816,1
257178404,32764,-11244,15908,-0.949822372,0.292817822,-0.085448861,-0.618476186,0.780197404,-31138,-25284,22222,198,22,-825,577,-349,835,1
257198404,18507,5791,6693,-0.945953049,0.302999221,-0.092822298,-0.569536299,0.815951459,5984,8544,3478,-2413,-575,-389,577,-347,833,1
257218404,10108,16668,-6725,-0.94497323,0.301776512,-0.106170635,-0.541697145,0.833189696,-10760,29864,-23336,-1405,-12,172,567,-321,819,1
257238404,11445,19091,-15603,-0.949005654,0.29345971,-0.091973935,-0.563026054,0.820572119,-8218,-30364,24716,1158,561,-197,577,-325,817,1
257258404,22505,-5078,-15384,-0.953530435,0.283985285,-0.072789031,-0.598613229,0.796868442,13744,-12538,25472,1911,651,-192,573,-321,822,1
257278404,19858,-9982,-9804,-0.958124883,0.268347291,-0.071210821,-0.605645992,0.791661797,8316,-22292,-28404,386,776,91,573,-331,841,1
257298404,17965,532,-4386,-0.964836834,0.241003986,-0.080057102,-0.587619172,0.804437725,4432,-1598,-17114,-910,591,232,561,-309,835,1
257318404,17298,2008,-105,-0.96721714,0.226025162,-0.091626706,-0.562137537,0.821259646,2934,1042,-7828,-1253,326,198,561,-319,853,1
257338404,17645,632,4374,-0.967010338,0.223451955,-0.098457645,-0.53372797,0.839270717,3588,-2022,1454,-1386,84,101,561,-321,856,1
257358404,14863,2361,5820,-0.966273062,0.222706875,-0.107153421,-0.503079779,0.85703068,-1984,1256,4486,-1463,137,34,553,-321,849,1
257378404,14094,2171,5887,-0.965157367,0.224942945,-0.11320161,-0.47748369,0.870860271,-3482,668,4562,-1198,54,-1,555,-307,857,1
257398404,10290,5382,4288,-0.966338821,0.218148252,-0.115720343,-0.462499168,0.878603933,-11094,6982,1430,-663,291,5,575,-311,882,1
257418404,9298,5892,2220,-0.969142588,0.204729063,-0.116334333,-0.461111302,0.879253892,-13166,7982,-2270,-40,641,67,559,-309,858,1
257438404,9447,2436,1341,-0.972544851,0.18887618,-0.114264042,-0.474653143,0.872262236,-12982,1138,-3506,650,822,93,565,-305,855,1
257458404,12887,-3081,6239,-0.973902263,0.187670216,-0.10426146,-0.486506976,0.866940007,-6154,-9874,6578,515,513,120,571,-307,894,1
257478404,15136,-4599,11291,-0.972730044,0.196947983,-0.098206492,-0.487745572,0.866946926,-1650,-12726,16536,-10,217,201,547,-319,879,1
257498404,15832,1270,10606,-0.971139606,0.201920494,-0.103893395,-0.482272103,0.869356655,-232,-888,14960,-312,308,264,549,-323,929,1
257518404,12428,3009,4063,-0.972391099,0.192188792,-0.110087282,-0.480939865,0.869336061,-7046,2530,1938,-57,626,155,555,-329,906,1
257538404,11019,552,1533,-0.975046067,0.178526413,-0.108756174,-0.491572512,0.863504073,-9918,-2452,-2784,521,712,93,543,-327,894,1
257558404,12420,-5056,-2282,-0.98018188,0.156739956,-0.095318379,-0.504886899,0.857368574,-7188,-13670,-9994,645,687,166,519,-331,948,1
257578404,12828,-5074,976,-0.983055197,0.141706999,-0.087876378,-0.505636521,0.857708912,-6512,-13462,-2746,17,641,303,531,-331,950,1
257598404,15244,-5113,1984,-0.984706799,0.131462034,-0.085367762,-0.498231394,0.862308515,-1748,-13408,-338,-375,474,386,521,-335,980,1
257618404,15578,-1531,1938,-0.984831659,0.127407383,-0.089690997,-0.487869376,0.867798414,-1102,-6178,-304,-496,203,395,505,-349,959,1
257638404,20713,-2817,3428,-0.983505398,0.130225105,-0.099694095,-0.476857014,0.872837735,9194,-8894,2586,-511,-80,397,513,-339,982,1
257658404,26976,-6754,6548,-0.980356507,0.146590397,-0.108321301,-0.459324228,0.881213224,21820,-17048,8296,-803,-676,296,507,-359,984,1
257678408,31803,-9789,6813,-0.974159423,0.180141902,-0.11421451,-0.425056387,0.897575838,31656,-23312,7742,-1534,-1479,42,527,-343,967,1
257698408,32764,-8537,1648,-0.963669069,0.22937879,-0.11674082,-0.38154491,0.916678173,-31630,-20896,-4190,-1887,-2199,-236,561,-327,991,1
257718408,31041,-4001,-5567,-0.950173669,0.27964608,-0.119062544,-0.330158984,0.936192079,30892,-11898,-20262,-2159,-2307,-421,587,-315,969,1
257738408,26068,-1439,-13902,-0.936327089,0.322205763,-0.122430921,-0.281694721,0.951528963,21412,-6884,27200,-1986,-1996,-434,619,-267,932,1
257758408,23117,-2902,-13892,-0.923879689,0.357197201,-0.120691444,-0.239399424,0.963298034,15928,-9752,26066,-1627,-1651,-617,639,-257,898,1
257778408,24344,-3523,-12869,-0.913171181,0.385197697,-0.11680022,-0.191510605,0.974459065,18736,-10866,27190,-1769,-1378,-834,659,-225,887,1
257798408,18999,-2689,-14180,-0.905102771,0.403170776,-0.119506212,-0.133321714,0.983820226,8306,-9288,23982,-2218,-1006,-789,655,-203,833,1
257818408,14928,2084,-10444,-0.908558607,0.391900552,-0.132510791,-0.064686969,0.989088774,388,-124,31070,-2596,-809,-604,665,-185,809,1
257838408,12339,4107,-8898,-0.91187104,0.375604605,-0.154932413,0.007554363,0.987957947,-4960,3320,-30816,-2805,-630,-408,663,-187,753,1
257858408,9450,4863,-9392,-0.917360727,0.349504337,-0.181619748,0.080813672,0.980169674,-10940,4056,-30996,-2861,-335,-297,667,-175,732,1
257878408,6494,4799,-7905,-0.917403547,0.340155227,-0.196682647,0.143997982,0.969986141,-17126,3184,-26924,-2627,-29,-273,667,-181,719,1
257898408,6712,3901,-9374,-0.918942586,0.327670775,-0.21027044,0.200462576,0.95705506,-16718,958,-29468,-2375,108,-220,673,-183,704,1
257918408,9546,3931,-10770,-0.929603331,0.283606766,-0.228443114,0.264602818,0.937197639,-11164,598,-31642,-2495,321,-242,661,-173,701,1
257938408,10772,5723,-9703,-0.936928108,0.240313619,-0.247556969,0.32794898,0.912085943,-9050,3626,-27996,-2552,347,-171,663,-175,690,1
257958408,12478,6210,-10143,-0.942641731,0.198365819,-0.262795247,0.38919873,0.883385723,-5862,4082,-27460,-2514,305,-160,651,-193,683,1
257978408,12434,7199,-10339,-0.945808874,0.159447905,-0.277703691,0.448284788,0.850304192,-6100,5618,-26548,-2514,169,-105,649,-185,683,1
257998408,8429,11061,-10485,-0.944762554,0.119803449,-0.300589815,0.508781645,0.807647495,-14196,12860,-25506,-2772,121,-25,651,-185,656,1
258018408,5450,16411,-6487,-0.937194256,0.087731566,-0.334447204,0.56643636,0.75480519,-20066,22744,-16182,-3031,-7,186,641,-195,642,1
258038408,7466,11012,3121,-0.927737972,0.082939005,-0.363401146,0.607168956,0.709275356,-15702,10874,3710,-2538,-416,343,633,-195,617,1
258058408,12447,7951,6061,-0.922878752,0.088152302,-0.375307196,0.633949222,0.679395225,-5454,4036,9542,-1752,-437,193,633,-203,611,1
258078408,18678,9132,7475,-0.921763401,0.09360039,-0.376870554,0.650553647,0.662611945,7142,6204,11888,-935,-535,30,633,-223,605,1
258098408,17196,17977,11064,-0.925932739,0.100016229,-0.363595487,0.6599852,0.660009017,4044,24300,18850,-265,-309,-513,623,-213,596,1
258118408,13861,15459,19013,-0.933735849,0.104064923,-0.340114216,0.649293439,0.681904947,-2884,19984,-30916,1056,288,-793,623,-187,628,1
258138408,11634,6640,15491,-0.937941099,0.124348467,-0.319845018,0.622685717,0.715170851,-7596,3068,27582,1568,613,-730,609,-191,609,1
258158408,13583,4161,8681,-0.942374295,0.148797449,-0.294095008,0.591968065,0.750906421,-3786,-1200,12882,1898,136,-723,611,-175,653,1
258178408,14192,6063,4011,-0.946666822,0.165124744,-0.269760841,0.553300418,0.788310193,-2710,3500,2718,2320,171,-723,599,-165,670,1
258198408,24031,8350,13347,-0.946687572,0.202461591,-0.241969382,0.50782878,0.826756692,17000,8840,20088,2597,-823,-599,607,-155,657,1
258218408,10184,-926,-7699,-0.953826413,0.196939677,-0.216170475,0.455909196,0.863259517,-10930,-8888,-21822,2753,970,-449,589,-131,667,1
258238408,21004,-7411,-19225,-0.969469681,0.1530874,-0.176944909,0.418781456,0.890449075,10184,-20598,22114,2122,2358,-1189,593,-125,690,1
258258408,15562,5821,-6522,-0.974597098,0.120905008,-0.174554702,0.412273621,0.893991273,-778,6124,-17474,469,910,-195,595,-121,748,1
258278408,32764,-18053,-9801,-0.974802624,0.109067349,-0.179474912,0.431427021,0.883867702,-31968,23578,-23166,-876,426,157,593,-133,745,1
258298408,32764,2566,14814,-0.973079711,0.122822611,-0.180015664,0.489447467,0.852867005,-31936,-740,25638,-2632,-971,-227,579,-117,739,1
258318408,19923,8293,5056,-0.975735631,0.112234091,-0.172060941,0.538774591,0.82414416,7846,10974,6456,-2241,118,-533,579,-111,710,1
258338408,12449,7000,-9642,-0.979999576,0.082159098,-0.165753946,0.564598765,0.8079773,-7206,8872,-22580,-1015,386,-661,587,-107,701,1
258358408,13887,6510,-14235,-0.981360259,0.064453002,-0.163307951,0.564957703,0.808138853,-4398,7692,-30574,16,828,-42,575,-101,707,1
258378408,19013,-710,-14448,-0.981189251,0.043290615,-0.170673183,0.565047819,0.806566713,5868,-6984,-30314,-30,949,353,583,-97,701,1
258398408,18932,1143,-11034,-0.980645524,0.014973199,-0.178280773,0.576458696,0.796788804,5720,-3526,-22554,-590,1143,351,597,-99,746,1
258418408,16971,3917,-7778,-0.979087602,-0.029247778,-0.185822215,0.593299318,0.782630486,1840,1814,-14970,-772,1286,325,583,-123,747,1
258438408,13503,6999,-4842,-0.974905832,-0.066082213,-0.196641048,0.60375824,0.771882128,-5022,7844,-7742,-519,1216,210,573,-121,731,1
258458408,12760,5907,-1119,-0.970764432,-0.090103732,-0.206416283,0.602931384,0.769991582,-6344,5312,732,8,1100,188,599,-121,757,1
258478408,14171,728,1242,-0.969384195,-0.10009248,-0.208314003,0.593429511,0.776883911,-3376,-5468,5948,479,833,276,583,-135,779,1
258498408,18165,-3074,2704,-0.970398635,-0.098936113,-0.204295048,0.586889662,0.782907246,4630,-13142,8878,350,399,298,589,-131,812,1
258518408,16432,-3083,4603,-0.973166849,-0.090206034,-0.194956878,0.590384297,0.782601804,1078,-12856,12498,-175,112,135,587,-151,791,1
258538408,14919,-167,7261,-0.975917256,-0.077265823,-0.186478225,0.599449212,0.777684432,-2068,-6574,17552,-515,73,-24,595,-129,817,1
258558408,13190,4420,8164,-0.977127844,-0.06372017,-0.185673075,0.602478622,0.775528949,-5620,2912,18966,-265,169,-102,581,-131,793,1
258578408,12011,7902,7022,-0.977005776,-0.050716856,-0.190648464,0.59599736,0.77936711,-8028,9930,16178,208,181,-177,587,-133,812,1
258598408,7394,10397,4569,-0.974703047,-0.040530995,-0.204733697,0.574156672,0.792222999,-17264,14754,10828,952,296,-208,595,-125,820,1
258618408,10501,7182,3612,-0.972594572,-0.035878826,-0.215781437,0.53924544,0.813710522,-10946,7696,8714,1613,606,-13,599,-131,846,1
258638408,11677,298,2215,-0.971949965,-0.043297559,-0.216940835,0.50349988,0.836086929,-8514,-6460,5866,1738,775,31,577,-127,846,1
258658408,12545,-2356,258,-0.971521042,-0.048627168,-0.217618065,0.470519414,0.854988633,-6760,-11788,2118,1570,650,7,597,-115,885,1
258678408,12441,-1645,1993,-0.971184352,-0.053733917,-0.217808688,0.447234586,0.867397081,-6950,-10372,5750,1097,537,4,583,-131,892,1
258698408,12142,418,-1143,-0.971115891,-0.058586098,-0.217020087,0.423882259,0.879287696,-7544,-6220,-366,1088,520,-41,603,-157,903,1
258718408,12523,-395,-741,-0.970973507,-0.063879199,-0.21607128,0.404352918,0.888698123,-6778,-7816,612,901,500,-40,573,-169,906,1
258738408,12954,729,1473,-0.970506974,-0.06501589,-0.21765088,0.385600559,0.896648787,-5900,-5616,5078,853,318,64,569,-177,929,1
258758408,16329,43,3454,-0.971904052,-0.050739029,-0.215563846,0.364560792,0.905930188,864,-7122,8824,900,8,166,591,-181,946,1
258778408,29399,-6884,1886,-0.971504662,-0.02957109,-0.221380883,0.346043561,0.911829259,26954,-20962,4744,821,-616,258,589,-175,968,1
258798408,32083,-3693,8105,-0.972071148,0.011632364,-0.221470538,0.345961712,0.91184501,32298,-14584,15840,30,-1633,61,595,-193,946,1
258818408,32764,3183,5107,-0.97132317,0.067251815,-0.215584054,0.357551433,0.908726973,-31866,-650,8034,-449,-2339,-198,617,-189,897,1
258838408,32764,9245,-2076,-0.966508707,0.133699995,-0.20671088,0.36252358,0.90875469,-31722,11758,-8500,-127,-2722,-320,647,-187,881,1
258858408,32764,7015,-11991,-0.958591625,0.196377538,-0.193760548,0.354629364,0.91464868,-31454,7714,-30394,494,-2453,-397,707,-199,865,1
258878408,27086,10751,-12161,-0.948847335,0.25199949,-0.177414108,0.352732344,0.918632103,23052,15716,-32562,302,-2222,-561,729,-197,765,1
258898408,23802,8364,-6745,-0.937092029,0.301703598,-0.162170781,0.350638794,0.922199575,16872,11434,-23364,322,-1994,-502,729,-177,732,1
258918408,26796,3668,-10351,-0.926705236,0.337850418,-0.150935727,0.348741999,0.924804194,23214,2408,-31768,279,-1444,-340,735,-185,702,1
258938408,18299,8463,-7877,-0.914940184,0.370510843,-0.146509483,0.347623399,0.92592698,6606,12142,-27894,144,-1331,-91,751,-175,670,1
258958408,13327,9420,-7692,-0.910583396,0.37830874,-0.155438054,0.34728251,0.924647447,-2982,14186,-28414,201,-1096,-46,767,-165,642,1
258978408,8973,6966,-7022,-0.909688523,0.378189426,-0.161075572,0.339772316,0.92649531,-11650,9102,-27122,557,-754,-47,763,-161,607,1
258998408,6730,4575,-7062,-0.906069856,0.389256619,-0.153369185,0.329015637,0.931634439,-16246,4142,-26872,584,-298,-43,769,-143,594,1
259018408,5071,3858,-7822,-0.90434006,0.393685726,-0.152514016,0.322879266,0.933927979,-19492,2740,-28550,285,-70,130,783,-143,611,1
259038408,2639,2994,-9204,-0.903737191,0.393224381,-0.157163207,0.320758181,0.933898298,-24338,860,-31296,24,107,262,781,-149,578,1
259058408,2572,3294,-9384,-0.904475363,0.388450932,-0.164750211,0.320633652,0.932652695,-24496,1214,-31498,-108,276,337,775,-161,587,1
259078408,3847,2439,-9565,-0.905625902,0.380360818,-0.176816599,0.321491204,0.930175981,-21984,-886,-31596,-227,401,483,791,-159,570,1
259098408,3168,5203,-10003,-0.905385664,0.376423176,-0.186527637,0.318497268,0.929351222,-23332,4330,-32344,-28,251,463,811,-173,598,1
259118408,7077,5871,-8389,-0.904339319,0.378044715,-0.188141999,0.300622145,0.934985649,-15486,5614,-29166,703,154,407,801,-169,585,1
259138408,7362,4412,-3791,-0.906039964,0.379705831,-0.17610325,0.25870226,0.949756851,-14982,3080,-20016,1878,381,296,811,-165,623,1
259158408,7999,184,1194,-0.90870359,0.382420024,-0.154991121,0.206382463,0.966098439,-13806,-4694,-10130,2408,397,118,795,-191,654,1
259178408,11927,-1657,4336,-0.912286865,0.382659014,-0.131195611,0.156869462,0.978843493,-6066,-7602,-3854,2311,434,-38,807,-161,664,1
259198408,16399,-2272,6526,-0.919556271,0.374095939,-0.101287929,0.112097999,0.988499796,2668,-8080,810,2097,739,-108,825,-183,682,1
259218408,19697,-891,6708,-0.929771401,0.353882043,-0.077132187,0.059674732,0.995223163,8894,-4306,1840,2381,1196,-79,817,-179,713,1
259238408,18444,1542,11525,-0.942826679,0.322409447,-0.050513529,-0.005906506,0.998702606,5942,1428,12518,2904,1642,-63,821,-195,775,1
259258408,17289,-1637,14026,-0.950048776,0.303514536,-0.022499785,-0.080588261,0.996481424,3388,-4010,18146,3268,1021,-80,805,-193,814,1
259278408,18479,-6526,11025,-0.954480128,0.290083718,-0.0028497,-0.148283182,0.988902813,5640,-13146,12572,2906,694,109,809,-213,861,1
259298408,25082,-572,23991,-0.952979326,0.295094637,0.004349141,-0.195657238,0.980596304,18918,-1000,-27214,1980,-129,342,797,-235,875,1
259318408,10952,5124,1111,-0.962405875,0.261941155,-0.010456782,-0.231224295,0.972748391,-9658,9906,-6346,1283,1492,1044,805,-219,873,1
259338408,32764,-15766,-7154,-0.970899658,0.228097251,0.00981591,-0.250275992,0.968012854,-31838,-31210,-21776,998,1502,-550,813,-267,934,1
259358408,17234,-8460,3976,-0.976485752,0.20103332,0.02606749,-0.252004104,0.967261104,2450,-16466,1388,136,1235,-87,799,-255,924,1
259378408,30328,2447,839,-0.974481033,0.209309256,0.035240788,-0.230403323,0.972361263,28718,6050,-5180,-780,-231,-491,813,-247,969,1
259398408,31322,9866,4010,-0.972305596,0.217151692,0.047014386,-0.227465242,0.972556686,30780,21274,902,13,-240,-435,811,-223,955,1
259418408,21518,4582,3216,-0.970459282,0.223083667,0.056124117,-0.223690018,0.972950039,11232,11004,-880,-41,-156,-338,795,-231,943,1
259438408,11393,14017,-8587,-0.975970432,0.2000046,0.044985874,-0.230879556,0.971843705,-9052,30206,-24228,368,391,-288,809,-219,970,1
259458408,17398,-902,-13044,-0.978415184,0.186271571,0.049971301,-0.263727628,0.963173531,2724,-164,-32186,1419,589,120,833,-209,986,1
259478408,21524,-8506,-13970,-0.980984174,0.171744451,0.050356486,-0.284179293,0.957297079,10896,-15360,31970,880,643,193,833,-219,993,1
259498408,18343,-1859,-10749,-0.982966052,0.161065575,0.046582085,-0.278829658,0.959066829,4474,-2192,-26778,-225,539,171,811,-243,993,1
259518408,15917,3899,-5849,-0.987256942,0.137843009,0.031745205,-0.265321219,0.963520793,-438,9082,-16666,-612,504,262,823,-231,995,1
259538408,15304,5603,-2365,-0.990039617,0.117228528,0.013812659,-0.259874851,0.965424081,-1810,12004,-8808,-251,642,325,827,-221,1017,1
259558408,15113,2819,1620,-0.991641797,0.102805166,0.004202738,-0.262951337,0.964676289,-2272,5958,-124,136,681,234,817,-237,1040,1
259578408,14399,5050,6343,-0.991698544,0.102257118,-0.006179674,-0.269864943,0.962748215,-3730,10192,9620,309,464,142,803,-229,1043,1
259598412,14031,1960,10866,-0.990387905,0.1146517,-0.008482815,-0.281671535,0.959331796,-4446,3744,18482,521,216,74,807,-243,1041,1
259618412,13953,-476,10160,-0.988528267,0.130337797,-0.003511309,-0.302520856,0.952971421,-4550,-1096,16520,920,37,-8,815,-253,1063,1
259638412,11654,2232,7119,-0.986633275,0.144162223,-0.002277052,-0.328745183,0.944216892,-9084,4548,9898,1170,-3,-42,805,-251,1062,1
259658412,11852,-900,7074,-0.984523833,0.157951128,0.00713018,-0.357401833,0.933682557,-8622,-1624,9338,1301,-28,-73,811,-277,1063,1
259678412,12731,-1117,7661,-0.982184833,0.171563974,0.016693552,-0.381466005,0.923953991,-6788,-1746,10054,1124,-45,-87,821,-273,1045,1
259698412,11587,375,5360,-0.981491787,0.174641287,0.022646368,-0.400581134,0.915665602,-8994,1494,4998,901,-56,-38,823,-279,1060,1
259718412,10313,4368,5681,-0.981382398,0.174848642,0.027695506,-0.421598269,0.906010991,-11536,9644,5632,986,51,15,829,-295,1093,1
259738412,10261,3430,4612,-0.982084373,0.169749929,0.033178756,-0.450898254,0.891548943,-11672,7948,3668,1369,257,62,823,-307,1081,1
259758412,14182,-867,-930,-0.983882435,0.157962492,0.039379874,-0.482292898,0.874659291,-3850,-464,-7248,1478,244,72,839,-315,1105,1
259778412,11931,-22,710,-0.98343751,0.158713093,0.044423771,-0.50929012,0.858893042,-8378,1414,-3774,1315,6,51,851,-325,1091,1
259798412,10776,-1205,1669,-0.982579188,0.162475582,0.049786728,-0.532694159,0.844219705,-10654,-776,-1986,1167,-124,17,847,-339,1086,1
259818412,14627,-2167,6230,-0.980256725,0.174922956,0.053777897,-0.549141973,0.833319031,-2914,-2656,6944,840,-196,131,875,-353,1093,1
259838412,22803,-3404,7044,-0.975768052,0.198308907,0.056192327,-0.565491274,0.822111934,13622,-4966,7594,833,-927,107,865,-385,1069,1
259858412,29840,2886,8907,-0.966706827,0.237913599,0.060996935,-0.577634558,0.813239207,27986,7772,10028,664,-1602,-4,885,-373,1028,1
259878412,32764,5944,13452,-0.950990085,0.292930825,0.07076827,-0.586234603,0.806232696,-31200,14208,17324,565,-2271,-208,919,-379,1005,1
259898412,32764,7043,11244,-0.930000558,0.35117281,0.085633719,-0.595740225,0.797739051,-30518,16892,11002,708,-2476,-350,937,-367,927,1
259918412,32764,5954,1616,-0.906540532,0.405736467,0.097829688,-0.609871451,0.785534939,-29746,15112,-10044,913,-2408,-116,959,-367,916,1
259938412,31578,5822,-8029,-0.883295218,0.452320559,0.107295852,-0.627865994,0.7699026,-31354,15158,-30864,1064,-2139,123,975,-363,815,1
259958412,23009,5415,-10540,-0.86184321,0.490550205,0.114928372,-0.643571075,0.755657112,17758,14592,28390,931,-1803,187,1003,-385,784,1
259978412,16763,7520,-9447,-0.843776915,0.521189345,0.114907497,-0.651678476,0.748638695,5862,18800,29568,400,-1415,277,1009,-367,767,1
259998412,11312,10464,-3807,-0.839207456,0.532580078,0.09510194,-0.663979858,0.740545958,-4516,24712,-25502,478,-1174,306,1025,-387,709,1
260018412,10632,1202,-5708,-0.830308238,0.543942509,0.108076069,-0.677744612,0.726069808,-5952,5940,-29240,994,-581,51,997,-395,697,1
260038412,8043,-2236,-7154,-0.829748498,0.542809939,0.117776749,-0.691034911,0.711849775,-11106,-620,-32096,904,22,156,1009,-371,698,1
260058412,4129,-1658,-7311,-0.83590981,0.533346307,0.117033243,-0.701681981,0.70141626,-19138,512,-32100,521,477,409,1019,-373,693,1
260078412,2337,178,-6817,-0.847145639,0.516304543,0.112119429,-0.709544796,0.694240568,-23090,4024,-30552,288,871,453,1019,-373,701,1
260098412,3631,562,-4870,-0.855999043,0.502139425,0.108668149,-0.71494225,0.689201079,-20792,4682,-26194,213,736,328,1015,-399,726,1
260118412,6307,-1099,-4433,-0.863463052,0.490375444,0.102693742,-0.718828119,0.686038598,-15684,1164,-24936,81,634,366,995,-409,744,1
260138412,11525,-3923,-2861,-0.868272681,0.482934069,0.096843844,-0.724585364,0.680770589,-5406,-4676,-21548,188,419,417,1013,-411,737,1
260158412,11954,-3658,-2668,-0.875790171,0.469955191,0.092498063,-0.731011262,0.674446857,-4794,-4288,-20736,263,663,385,1013,-413,754,1
260178412,9050,-1809,340,-0.885803754,0.450595541,0.092707588,-0.74162082,0.662668001,-10934,-584,-14084,601,916,345,1015,-429,774,1
260198412,9172,-1399,444,-0.897789128,0.425451152,0.09506597,-0.753673196,0.648495436,-11084,316,-13050,750,1153,300,1015,-461,777,1
260218412,15672,-2426,4293,-0.911733322,0.394795811,0.093653927,-0.761650156,0.639280928,1512,-1840,-4476,411,1244,367,1021,-449,777,1
260238412,18628,-5312,7711,-0.914687434,0.389958782,0.084645315,-0.755806575,0.647473019,7282,-7854,2642,-494,353,233,1017,-469,822,1
260258412,13784,194,9634,-0.915590564,0.391142171,0.068252657,-0.736968217,0.670847906,-2516,2702,6642,-1304,400,119,1001,-457,839,1
260278412,13557,8936,12945,-0.918815531,0.386038793,0.051258766,-0.718511991,0.692131443,-3004,19554,13246,-1293,399,248,1005,-451,825,1
260298412,16006,14434,14286,-0.920459133,0.384122012,0.031622463,-0.710732985,0.701298257,1844,29906,15986,-729,208,606,1015,-449,837,1
260318412,15912,15466,16275,-0.919435687,0.387782928,0.009955533,-0.706661941,0.706067232,1690,31260,19844,-547,-60,771,1015,-471,863,1
260338412,4898,13701,12396,-0.913104536,0.401254905,-0.034804441,-0.701918676,0.710035678,-20334,26948,12080,-593,78,849,1025,-477,855,1
260358412,26251,17257,16037,-0.923697978,0.375413701,-0.039993121,-0.719459774,0.691869458,22220,-32332,19778,892,1262,648,1013,-481,885,1
260378412,25219,-4886,-6536,-0.941631414,0.329518985,-0.013792147,-0.746419834,0.663611909,19542,-10222,-23846,1884,2134,-385,1015,-511,905,1
260398412,27277,-18371,117,-0.958986029,0.273922523,0.020165924,-0.779212613,0.624406479,23074,29458,-8704,2420,2447,-639,1003,-491,941,1
260418412,23163,-11259,3523,-0.96190661,0.258652804,0.052670745,-0.787887488,0.611398276,14790,-20790,-1422,987,695,-1052,997,-489,971,1
260438412,19980,4979,-9359,-0.970355773,0.221800458,0.062694331,-0.782252287,0.617703622,8150,12012,-25980,-213,1644,-422,987,-479,978,1
260458412,22615,6693,1506,-0.966515455,0.238896083,0.060042547,-0.778784607,0.622354921,13556,15354,-4816,-227,-610,106,987,-451,1014,1
260478412,23660,1688,925,-0.96747292,0.237796953,0.047209079,-0.767430671,0.637447521,15612,4924,-5940,-842,183,380,993,-449,1010,1
260498412,13016,7112,-9057,-0.975520112,0.20492129,0.03879454,-0.763790287,0.642599337,-5770,15914,-25466,-230,663,-184,987,-441,999,1
260518412,18432,-4814,-6192,-0.980733091,0.174393317,0.051692142,-0.765396524,0.639751427,4794,-8124,-18544,185,782,-204,977,-421,1009,1
260538412,16504,-1037,-4945,-0.984492041,0.151139166,0.052512223,-0.755322911,0.651619103,808,-366,-15256,-623,559,-71,971,-441,1054,1
260558412,14113,5368,-3247,-0.98679042,0.138288524,0.039408123,-0.739731515,0.670159321,-4058,12400,-11342,-967,270,-20,977,-397,1049,1
260578412,13608,5769,-335,-0.98800673,0.131487593,0.024599459,-0.725191317,0.686546139,-5142,12748,-5110,-868,233,38,981,-403,1049,1
260598412,14805,5323,3393,-0.988237802,0.13177803,0.010268237,-0.717463214,0.69502758,-2780,11316,2554,-457,195,166,971,-393,1082,1
260618412,16003,3483,6166,-0.98808296,0.133220611,0.007393955,-0.716266409,0.696307553,-382,7274,8038,-51,122,84,959,-381,1072,1
260638412,12799,2903,4848,-0.988267316,0.132253787,0.004428953,-0.724299587,0.687952504,-6812,6160,5578,512,394,-20,955,-399,1068,1
260658412,11565,6032,2623,-0.989106683,0.125464182,-0.004037736,-0.740028678,0.670907697,-9298,12374,1222,988,465,-25,963,-383,1088,1
260678412,10763,3147,4406,-0.989987044,0.11806893,0.000949146,-0.758254198,0.650135068,-10924,6326,4948,1165,393,-13,983,-393,1094,1
260698412,10664,-81,5120,-0.990481215,0.113820305,0.00611564,-0.775300251,0.629589727,-11136,42,6512,1124,254,-31,953,-403,1105,1
260718412,11818,409,6936,-0.989124421,0.125232324,0.007667002,-0.789698336,0.611310229,-8828,1106,10158,981,96,56,959,-399,1113,1
260738412,14391,3019,5268,-0.98884346,0.127824884,0.001715143,-0.804617694,0.591480335,-3652,6288,6562,1026,240,182,947,-407,1117,1
260758412,10119,2891,4735,-0.99021557,0.115982316,0.002810217,-0.82084905,0.568563268,-12220,5876,5676,1165,571,147,923,-421,1147,1
260778412,12961,-303,1927,-0.992100745,0.097959399,0.003215795,-0.840797782,0.538434982,-6602,-498,656,1487,820,191,921,-411,1135,1
260798412,15072,-5286,-1816,-0.993531538,0.080866199,0.015176739,-0.859171448,0.508248864,-2410,-10382,-6460,1459,546,81,897,-443,1151,1
260818412,12994,-5627,-3323,-0.994454795,0.065167969,0.025418756,-0.868759075,0.491177296,-6592,-10778,-9060,808,367,141,897,-445,1156,1
260838412,13794,-3991,-2646,-0.995099997,0.052277697,0.027704916,-0.872643242,0.484055681,-5016,-7316,-7234,334,324,282,903,-429,1189,1
260858412,16885,-5273,905,-0.995031528,0.052265625,0.028482611,-0.872032709,0.485064056,1154,-9880,98,-35,94,355,887,-435,1195,1
260878412,23038,-4174,5723,-0.99471896,0.061358718,0.01896039,-0.867285505,0.493964326,13474,-7724,9438,-404,-269,420,873,-441,1182,1
260898412,29210,-6103,10732,-0.992913619,0.08880531,0.009810162,-0.856244862,0.513292221,25874,-11882,18560,-905,-1019,360,885,-413,1174,1
260918412,28470,1297,15224,-0.987661038,0.136046521,0.007499456,-0.839544198,0.540312616,24544,2840,26014,-1266,-1828,8,897,-401,1161,1
260938412,28883,2133,9769,-0.977610674,0.196909843,0.009687121,-0.824706972,0.562867492,25696,4586,13110,-1045,-2412,-212,929,-355,1091,1
260958412,32764,-77,-1896,-0.963890661,0.256398296,0.009870259,-0.822391849,0.566226488,-31626,172,-12174,-133,-2390,10,945,-329,1045,1
260978412,32764,-10914,-16413,-0.951295305,0.300238892,0.010818868,-0.829054445,0.556348061,-31198,-21470,22882,502,-1772,152,975,-335,997,1
260998412,26459,-6465,-12663,-0.936866231,0.34258908,0.021254747,-0.815972224,0.575199066,22198,-12230,28994,-724,-1715,-645,1001,-327,964,1
261018412,26327,-9390,-7047,-0.920823477,0.383467501,0.030057467,-0.794576492,0.604228033,22456,-17794,-26646,-1213,-1660,-808,1037,-287,865,1
261038412,27390,-8968,-9741,-0.904514154,0.420571489,0.032210182,-0.759545267,0.647812545,25104,-16876,32292,-2021,-1487,-934,1021,-265,807,1
261058412,20020,8105,-4291,-0.883559637,0.464191999,0.013151909,-0.716853403,0.695600685,11036,16644,-23764,-2653,-1819,-397,1029,-259,754,1
261078412,12011,8653,-4448,-0.874749174,0.480910255,-0.018768852,-0.681360262,0.730576364,-4372,17222,-25180,-2059,-1434,-353,1037,-233,689,1
261098412,10294,3489,-3914,-0.860957647,0.504659353,-0.02596524,-0.651681632,0.756947994,-7654,6128,-24352,-1515,-1052,-477,1027,-237,665,1
261118412,8411,680,-6174,-0.850899188,0.521241596,-0.032184161,-0.620206447,0.782839587,-11074,308,-29424,-1525,-750,-575,1029,-237,623,1
261138412,4308,1952,-6849,-0.843930611,0.531767456,-0.042630469,-0.58295144,0.810593409,-19058,2508,-31116,-1801,-498,-575,1015,-245,598,1
261158412,3084,1448,-6982,-0.840534311,0.536230927,-0.052977319,-0.544744056,0.836263252,-21392,1162,-31528,-1778,-229,-585,1021,-209,581,1
261178412,3068,-466,-8178,-0.839766998,0.536086334,-0.065182605,-0.5061124,0.859447537,-21398,-3068,31618,-1785,-33,-505,1021,-225,562,1
261198412,6480,-1382,-8729,-0.842917014,0.529475732,-0.077303487,-0.472361457,0.877543433,-14672,-5294,30730,-1552,270,-356,1009,-215,553,1
261218412,7102,1685,-9669,-0.848870451,0.516225582,-0.098384744,-0.436568983,0.893890008,-13628,152,29288,-1783,533,-50,1003,-233,556,1
261238412,5770,8027,-11312,-0.864698233,0.478907106,-0.14065345,-0.393609164,0.90820631,-16470,11966,26490,-1989,525,120,1001,-227,528,1
261258412,6554,7674,-5962,-0.871175196,0.462878777,-0.152923096,-0.370950792,0.915766483,-15452,10356,-27088,-1059,656,39,1023,-253,561,1
261278412,5997,1352,-3683,-0.877757743,0.448795943,-0.156870421,-0.350792453,0.923048584,-16774,-2414,-22072,-819,589,-203,997,-247,576,1
261298412,7625,-2837,-6235,-0.88538835,0.427821239,-0.171666395,-0.307954039,0.935707133,-13782,-11272,-26480,-1865,700,-208,1001,-247,599,1
261318412,11756,1545,-3775,-0.890631292,0.401496639,-0.205258414,-0.253439818,0.945440581,-5706,-3594,-20690,-2576,737,354,1013,-257,583,1
261338412,20631,3073,403,-0.890877524,0.377354439,-0.246976537,-0.182507331,0.952157106,12018,-1876,-11528,-3283,350,470,1019,-269,588,1
261358412,19799,10315,2408,-0.888793549,0.351460082,-0.290660808,-0.092632843,0.953400491,10398,11218,-6650,-4000,63,337,1023,-301,596,1
261378412,18983,15627,5698,-0.882620636,0.316569826,-0.347815575,0.019609634,0.939699551,8928,20044,1106,-5043,-118,643,1003,-317,593,1
261398412,21270,18554,12199,-0.873949185,0.283691011,-0.39886991,0.1273783,0.912326001,13790,24334,15188,-4865,-427,596,1041,-351,585,1
261418412,14181,20881,14690,-0.868435336,0.25461336,-0.432761879,0.212466378,0.882139616,-164,27988,21090,-3846,-358,317,1033,-353,584,1
261438412,5543,18628,15782,-0.868163656,0.236699566,-0.444755647,0.271270171,0.860444507,-17390,23144,23828,-2550,-342,-155,1035,-381,571,1
261458412,15760,27741,12909,-0.875497989,0.224059425,-0.435538051,0.284887634,0.860165857,2826,-23880,18476,-391,469,-437,1029,-375,580,1
261478412,8748,24431,-17065,-0.893214593,0.218627896,-0.396406745,0.246238222,0.888557268,-11808,-29340,24268,2193,1323,-1048,1005,-363,579,1
261498416,17844,14883,-17827,-0.911017161,0.220727017,-0.347848142,0.12285446,0.931805542,5670,18536,22786,5620,2240,-632,1021,-347,612,1
261518416,32764,-24546,-4183,-0.923137806,0.24676951,-0.290154004,0.014398672,0.957943944,-30380,7034,-16358,4943,620,-1124,1019,-323,663,1
261538416,32764,-16125,1468,-0.931728842,0.224103551,-0.279990449,-0.006465273,0.960897576,-30556,24228,-4400,949,1356,-137,1025,-301,685,1
261558416,30201,-8657,8156,-0.93256449,0.224817557,-0.276498202,0.029613808,0.961425317,29832,-26260,8950,-1365,-357,-420,1041,-307,692,1
261578416,24509,-6153,1142,-0.932293877,0.213736637,-0.286479767,0.084596768,0.955349578,18442,-21570,-4704,-2251,-114,-56,1031,-291,687,1
261598416,13852,12152,-1183,-0.932713769,0.195821052,-0.298344234,0.136748906,0.945802851,-2952,15058,-9002,-1995,-57,-412,1029,-289,666,1
261618416,16567,5089,-6613,-0.938949794,0.171071947,-0.2942102,0.156659693,0.943942636,2456,702,-19332,-551,318,-264,1011,-305,665,1
261638416,17437,2991,-10010,-0.943912087,0.143586954,-0.292720867,0.172392936,0.941628333,4058,-3550,-25314,-403,365,20,1025,-299,661,1
261658416,15768,5748,-9695,-0.946165647,0.107576337,-0.301030913,0.192564351,0.935211359,578,1834,-23486,-646,672,232,1019,-293,696,1
261678416,15258,2602,-5857,-0.948278392,0.072120188,-0.304485998,0.214017062,0.929452909,-500,-4732,-14482,-744,828,267,1029,-299,700,1
261698416,14913,-799,-2433,-0.95102456,0.040116398,-0.300364645,0.239582524,0.92442292,-1248,-11618,-6360,-973,893,252,1025,-311,695,1
261718416,12021,-393,-2044,-0.95055061,0.014908399,-0.303850682,0.264742056,0.916418811,-7116,-10594,-4570,-1050,825,174,1027,-307,707,1
261738416,11478,475,54,-0.94986972,-0.008261565,-0.306229782,0.290951064,0.907658082,-8178,-8928,382,-1097,717,152,1011,-311,731,1
261758416,11641,-327,1676,-0.948922036,-0.026947651,-0.308052611,0.31643212,0.898475017,-7822,-10590,4238,-1071,530,154,1003,-317,732,1
261778416,11544,-2368,3141,-0.948035849,-0.041033724,-0.309146502,0.342838742,0.888339803,-7986,-14706,7630,-1120,319,146,999,-337,770,1
261798416,7442,2153,3996,-0.948536376,-0.055982137,-0.304637003,0.373476177,0.87733331,-16210,-5524,9834,-1305,301,-53,1015,-329,749,1
261818416,5656,8024,310,-0.950115539,-0.067096308,-0.296923981,0.387312628,0.873806164,-19826,6460,2818,-568,374,-216,1039,-301,774,1
261838416,10304,9241,-289,-0.94569128,-0.074719194,-0.309689297,0.378993275,0.873289375,-10500,8878,1914,314,559,56,1021,-307,752,1
261858416,16407,-156,2290,-0.947194748,-0.075498272,-0.304371713,0.366867326,0.880214911,1880,-10418,7262,519,550,172,1007,-317,789,1
261878416,17114,-2962,4925,-0.95122125,-0.073728371,-0.291424666,0.367575066,0.88405936,3208,-15736,12594,-65,412,56,1011,-321,797,1
261898416,15659,4352,8741,-0.953275528,-0.064852931,-0.286711882,0.376267007,0.881851105,122,-568,20128,-533,220,-82,991,-321,803,1
261918416,16097,5483,7870,-0.954393592,-0.054150635,-0.285218005,0.37822501,0.881469114,936,1790,17976,-224,159,-42,1009,-321,795,1
261938416,12631,7618,5673,-0.953957343,-0.041208033,-0.288987301,0.371149709,0.883313622,-6048,6122,13086,173,89,-88,993,-317,797,1
261958416,15859,5649,3422,-0.954616323,-0.023180313,-0.289064959,0.350109674,0.891871987,424,2006,7826,867,-143,-36,997,-327,768,1
261978416,24392,-490,2213,-0.953870259,0.000362657,-0.293101672,0.323278986,0.900751613,17518,-10446,4418,1175,-569,202,1017,-339,773,1
261998416,31948,-3338,4842,-0.952357313,0.038919089,-0.295861289,0.307070246,0.905571979,32672,-16232,8418,708,-1343,182,1019,-347,744,1
262018416,32764,-2501,4416,-0.94963979,0.089170283,-0.294290292,0.312021263,0.904360121,-31150,-14512,5928,-175,-2116,-20,1013,-363,718,1
262038416,32764,327,-1981,-0.945165638,0.145614665,-0.286222302,0.321652059,0.903426748,-31014,-8604,-8710,-313,-2429,-314,1015,-371,655,1
262058416,31180,195,-10317,-0.938775839,0.19765277,-0.275944715,0.333405117,0.902191965,31568,-8546,-27090,-360,-2264,-435,1027,-379,588,1
262078416,27628,1244,-14566,-0.932220504,0.240513554,-0.263906636,0.341923073,0.902436769,24690,-6064,28534,-176,-1829,-491,1005,-371,568,1
262098416,24225,-3271,-12768,-0.924974767,0.278008288,-0.252151573,0.355575897,0.900359258,18120,-14720,30902,-375,-1659,-548,1009,-385,530,1
262118416,21180,-2891,-12634,-0.917121008,0.306881083,-0.247526306,0.378498822,0.892178072,12290,-13814,30218,-859,-1422,-419,993,-371,465,1
262138416,18745,2420,-10826,-0.908706563,0.330863949,-0.247944026,0.41017363,0.87789504,7692,-3206,-32484,-1314,-1337,-388,995,-365,436,1
262158416,14361,5085,-10175,-0.908779958,0.325604524,-0.25625909,0.445194868,0.858340016,-824,1986,-31748,-1330,-1054,-257,983,-371,425,1
262178416,9302,3379,-9909,-0.911722051,0.310418157,-0.26465218,0.474818947,0.839762328,-11030,-1692,-30798,-1113,-663,-157,977,-375,386,1
262198416,7835,2964,-9662,-0.91048876,0.309356211,-0.268905811,0.499041922,0.824117582,-14188,-2784,-29448,-1150,-191,-149,983,-371,391,1
262218416,5888,2410,-8927,-0.911684847,0.301163955,-0.274412449,0.527935594,0.804074228,-18110,-4062,-27720,-1397,29,-178,975,-381,384,1
262238416,5801,1641,-9590,-0.911381196,0.29287266,-0.284581599,0.56433464,0.775359338,-18282,-5922,-28766,-1890,-126,-126,975,-377,407,1
262258416,6477,117,-8869,-0.907128381,0.288203856,-0.303330245,0.603734983,0.737903815,-16798,-9560,-27164,-2299,-446,123,973,-405,379,1
262278416,6386,6027,-8430,-0.902544826,0.284481805,-0.321152611,0.639902309,0.699176695,-16828,1702,-26166,-2234,-517,110,975,-423,363,1
262298416,9156,9452,-4487,-0.898281228,0.269892119,-0.347254653,0.663049676,0.665219029,-11126,8170,-18326,-1485,-503,115,987,-443,378,1
262318416,10682,6300,-856,-0.893942665,0.274775349,-0.354453728,0.676591212,0.647594942,-7946,1220,-10706,-929,-490,83,981,-451,359,1
262338416,10965,4488,1521,-0.893923359,0.273303455,-0.355775905,0.690658448,0.631816959,-7368,-2438,-5916,-810,-176,-138,969,-465,362,1
262358416,10334,5406,4940,-0.897617064,0.262852594,-0.354147523,0.708018146,0.613073878,-8750,-552,1264,-949,177,-299,979,-465,366,1
262378416,11229,6562,6654,-0.898932157,0.258747196,-0.353745761,0.721268438,0.597554848,-7104,1882,5034,-818,225,-350,975,-461,353,1
262398416,11006,9070,6091,-0.899667149,0.252553163,-0.356433698,0.73001009,0.585253771,-7612,6956,4058,-581,341,-342,983,-463,372,1
262418416,9128,9870,5985,-0.899876023,0.246826826,-0.360266298,0.730265575,0.582799193,-11418,8538,4064,-66,557,-286,991,-475,380,1
262438416,8104,11853,7245,-0.897969333,0.24572831,-0.366070623,0.717417417,0.595337285,-13460,12410,6686,688,729,-116,1003,-451,400,1
262458416,14649,9808,9245,-0.901787169,0.250327734,-0.352386424,0.685634814,0.639045475,-400,8458,10530,2240,1040,-144,1013,-449,424,1
262478416,17563,8897,5571,-0.908897525,0.2518142,-0.330662535,0.657544242,0.678261517,5270,7256,2934,2150,838,-423,1011,-441,420,1
262498416,16486,5712,5773,-0.914376456,0.261270367,-0.305850462,0.635832485,0.709288143,2988,1556,3012,1740,280,-515,1005,-417,422,1
262518416,18746,3824,5436,-0.918797772,0.276622377,-0.276370521,0.613649599,0.739756053,7392,-1376,1816,1768,-47,-578,1023,-409,425,1
262538416,21746,7086,10185,-0.917354291,0.302270483,-0.252325045,0.591667658,0.765506132,13414,5988,10472,1606,-595,-473,1031,-379,413,1
262558416,14733,-6550,7912,-0.91464705,0.339707792,-0.210367602,0.562653195,0.799044751,-458,-20474,4862,1992,-848,-361,991,-375,399,1
262578416,32764,-27810,-14913,-0.937808435,0.291637413,-0.175863941,0.546764087,0.818041569,-30780,4176,26180,1391,2469,-961,1007,-353,409,1
262598416,18174,23521,8125,-0.944071043,0.283753406,-0.153408396,0.545298269,0.823468847,5406,-23500,6952,454,499,-765,1001,-349,421,1
262618416,25868,1695,9264,-0.944820222,0.287440037,-0.14136938,0.536007833,0.831684863,20774,-1226,9106,642,22,-268,1011,-317,442,1
262638416,18952,6785,-4396,-0.945482435,0.287801621,-0.136184354,0.534024715,0.833825827,6920,9120,-18224,197,96,-110,995,-319,443,1
262658416,18374,1822,-8766,-0.953564625,0.26428674,-0.128846274,0.526996348,0.83953247,5686,-572,-26814,564,359,-85,985,-307,445,1
262678416,17922,-3949,-14399,-0.957493339,0.25516402,-0.114728738,0.510885524,0.851407601,4448,-11650,28388,948,601,-285,993,-295,458,1
262698416,20461,-7722,-12953,-0.960970653,0.243985271,-0.1093612,0.510717005,0.852208894,9428,-19020,31632,100,566,-149,987,-289,460,1
262718416,19143,-2661,-11139,-0.964147875,0.229104539,-0.112848306,0.527411375,0.841473125,6686,-9010,-29784,-793,618,5,987,-307,485,1
262738416,17292,3219,-8159,-0.971308457,0.190371839,-0.124447517,0.552217271,0.823759459,2862,2436,-23118,-1171,837,190,997,-293,493,1
262758416,19030,3840,-5586,-0.975714289,0.15532298,-0.137122598,0.572732082,0.807536123,6134,3264,-16664,-1029,888,309,1007,-319,520,1
262778416,17288,4373,-3754,-0.979003377,0.120667025,-0.146790708,0.588358097,0.794438645,2506,4052,-11764,-779,1017,216,989,-331,524,1
262798416,15493,4138,-2477,-0.981415102,0.086079141,-0.153912528,0.598012185,0.785807362,-1178,3356,-8000,-470,1151,166,1037,-339,543,1
262818416,14918,2422,-1514,-0.982642116,0.055723256,-0.159110974,0.600912644,0.782541644,-2364,-348,-5004,-134,1121,257,1015,-333,589,1
262838416,15308,969,-1766,-0.983194349,0.030231353,-0.161684945,0.599431636,0.783143159,-1590,-3434,-4662,106,974,287,1023,-343,595,1
262858416,14622,44,-783,-0.983749239,0.008859238,-0.160415026,0.598109676,0.78441458,-2972,-5300,-1914,112,905,201,1035,-359,607,1
262878416,14279,-643,466,-0.984246554,-0.007177221,-0.15676295,0.596597997,0.786286784,-3668,-6598,1208,112,813,155,1019,-347,636,1
262898416,14258,-1290,1539,-0.985148389,-0.018015565,-0.149941747,0.595017809,0.78880894,-3730,-7706,3788,116,698,70,1029,-365,645,1
262918416,15908,-8,2851,-0.985931313,-0.021392504,-0.144106424,0.595325483,0.78965297,-468,-4862,6598,-3,466,-4,1005,-367,649,1
262938416,16992,419,4296,-0.986879729,-0.016790465,-0.138231801,0.597620048,0.788956448,1664,-3784,9398,-113,201,-42,1023,-361,653,1
262958416,15409,1437,3581,-0.987515852,-0.013765939,-0.133679927,0.597622469,0.789721839,-1532,-1534,7848,-1,256,-76,1011,-365,674,1
262978416,14325,3507,1483,-0.987457752,-0.01784575,-0.133077931,0.596645057,0.790549248,-3724,2770,3668,52,407,-96,1015,-363,660,1
262998416,13392,5057,-431,-0.986993629,-0.025033642,-0.135359388,0.593557041,0.79250313,-5588,5910,-50,169,391,-125,1017,-363,679,1
263018416,11408,5627,1062,-0.987444311,-0.031880535,-0.13063941,0.588524174,0.797056569,-9542,6986,3166,294,402,-143,1003,-345,706,1
263038416,12535,3418,3055,-0.987533983,-0.029791513,-0.130635931,0.576919969,0.805535635,-7298,2696,7340,563,389,-123,999,-355,678,1
263058416,15110,384,1966,-0.988319438,-0.028681571,-0.124768687,0.563611355,0.815853959,-2152,-3406,5026,679,319,-82,973,-335,708,1
263078416,14428,2578,2343,-0.988646163,-0.027255479,-0.122543255,0.551110001,0.824717885,-3544,1204,5760,613,326,-119,979,-357,697,1
263098416,12841,2009,1968,-0.989048291,-0.029013135,-0.118454529,0.538808791,0.83342058,-6732,182,5064,600,449,-172,989,-347,702,1
263118416,12465,3332,2106,-0.989339612,-0.035011806,-0.114116213,0.52322761,0.843924714,-7494,2934,5360,782,418,-146,973,-349,694,1
263138416,11401,6664,1169,-0.988218278,-0.035120988,-0.123434053,0.497230139,0.858277701,-9630,9678,3610,1209,372,-92,965,-347,699,1
263158416,12816,5067,-1273,-0.987012127,-0.041557582,-0.1307477,0.464871176,0.875242084,-6758,6094,-1222,1516,477,0,953,-353,743,1
263178416,13186,959,-1677,-0.986738283,-0.047654735,-0.130754238,0.428723536,0.893575823,-5972,-2414,-1856,1686,463,52,963,-373,728,1
263198416,13578,-1544,-2227,-0.987488953,-0.052246453,-0.123361985,0.395595832,0.909814982,-5192,-7348,-2842,1537,338,-38,939,-373,739,1
263218416,14669,-1242,115,-0.988293743,-0.048401678,-0.117510041,0.366003966,0.922912475,-3034,-6522,1882,1327,165,-5,939,-381,720,1
263238416,22897,-2525,-708,-0.988008406,-0.039300079,-0.123432883,0.341095131,0.931679411,13408,-9084,-124,1109,-157,246,913,-393,711,1
263258416,27019,952,2846,-0.987835806,-0.017354015,-0.130311539,0.324870097,0.936556494,21660,-2354,6264,720,-725,313,907,-403,693,1
263278416,29639,3204,1328,-0.987461096,0.01560327,-0.134872836,0.31863123,0.938071696,26912,2002,2148,285,-1234,240,923,-413,673,1
263298416,26090,8782,566,-0.986143045,0.058383284,-0.133771151,0.314663552,0.939570485,19848,13192,-768,198,-1644,18,883,-415,668,1
263318416,23545,8498,-10653,-0.983301731,0.098937463,-0.131571018,0.298193166,0.945250144,14852,12696,-24536,738,-1484,23,877,-437,610,1
263338416,23854,6897,-14413,-0.979569197,0.134178869,-0.129202063,0.27066493,0.953849427,15594,9572,32322,1202,-1214,94,865,-441,575,1
263358416,28053,4712,-13754,-0.975601841,0.164682617,-0.124299542,0.241903927,0.962212674,24122,5362,32640,1257,-1018,39,857,-449,549,1
263378416,22649,8217,-10195,-0.971378919,0.192795007,-0.117691204,0.223579146,0.967473378,13456,12586,-26704,834,-986,-71,849,-441,534,1
263398416,20673,9174,-9026,-0.966722958,0.218073329,-0.112264523,0.211463325,0.970841726,9662,14678,-25198,568,-906,-55,837,-437,533,1
263418416,15281,12840,-6413,-0.96138457,0.241701495,-0.11045821,0.198123293,0.973867323,-948,22068,-20746,581,-844,112,827,-443,514,1
263438420,14462,10070,-4598,-0.957933191,0.249927012,-0.123188018,0.179432988,0.975987397,-2408,16562,-17820,838,-732,224,829,-427,519,1
263458420,12653,7222,-4788,-0.956436766,0.251927538,-0.131458618,0.154820919,0.979142871,-5954,10508,-18326,1106,-504,229,795,-425,490,1
263478420,12066,8109,-5667,-0.955160622,0.250001317,-0.143712026,0.134228926,0.980484618,-7092,11930,-20050,924,-391,291,797,-439,490,1
263498420,10793,6482,-6080,-0.954688501,0.246223327,-0.153443396,0.114400338,0.981549647,-9600,8302,-20818,919,-385,255,775,-433,491,1
263518420,9679,7354,-6298,-0.954552658,0.239716928,-0.16423075,0.091643773,0.982223462,-11844,9768,-21046,1053,-246,240,787,-431,511,1
263538420,10358,4761,-4852,-0.951078042,0.253799379,-0.161856973,0.062362283,0.984905452,-10470,4240,-18008,1207,-300,261,765,-429,500,1
263558420,10338,4988,-5190,-0.948009165,0.265367417,-0.161408104,0.034227453,0.986360963,-10398,4708,-19072,1136,-219,338,779,-435,496,1
263578420,11591,3249,-4483,-0.944388986,0.278214332,-0.16134619,0.000134295,0.986966914,-7774,1232,-18080,1359,-239,434,757,-431,466,1
263598420,12515,1038,-4812,-0.94675719,0.274093889,-0.156368947,-0.037151493,0.987061821,-5822,-3072,-19166,1627,-211,383,761,-411,465,1
263618420,10319,1184,-5815,-0.9442103,0.283725774,-0.152685613,-0.077779694,0.985250464,-10330,-2618,-20910,1654,-49,380,751,-403,480,1
263638420,9498,2968,-3808,-0.943522632,0.290574944,-0.143714663,-0.128541868,0.981242819,-11944,1240,-17126,2112,119,304,753,-405,457,1
263658420,9069,653,-960,-0.943644971,0.298736027,-0.124993929,-0.190311272,0.973684309,-12818,-2782,-11688,2665,112,74,741,-395,469,1
263678420,8061,-4086,-479,-0.944736466,0.303890988,-0.102616512,-0.247064367,0.963443205,-14866,-11530,-10898,2532,164,-107,745,-395,467,1
263698420,7105,-6613,245,-0.946343228,0.304406524,-0.084047484,-0.28730675,0.953988997,-16818,-15978,-9474,1854,245,-152,733,-353,458,1
263718420,10386,-6445,1084,-0.945632653,0.309042778,-0.07438983,-0.312107122,0.946942937,-10224,-15324,-7956,1143,-18,2,737,-343,461,1
263738420,13242,-6483,652,-0.946282171,0.310746459,-0.057766862,-0.327859789,0.942755632,-4424,-15334,-9094,695,-213,192,721,-349,461,1
263758420,14947,-3022,1374,-0.946838256,0.310266599,-0.051227774,-0.336904898,0.939931711,-1052,-7962,-7622,396,-133,215,701,-327,450,1
263778420,15265,1083,4816,-0.944722645,0.317431804,-0.046214288,-0.346054794,0.936849011,-430,660,-774,465,-202,-24,717,-341,419,1
263798420,15179,1866,8773,-0.937898878,0.338453179,-0.036738747,-0.361751702,0.931302791,-440,2596,6618,811,-569,-170,703,-339,440,1
263818420,12517,5193,8625,-0.933386903,0.350753061,-0.03706683,-0.374012409,0.926414637,-5642,9456,5964,637,-148,-83,679,-331,385,1
263838420,18508,5008,17415,-0.929256817,0.3617651,-0.035761431,-0.384827636,0.922008842,6562,8848,22974,491,-374,175,677,-325,404,1
263858420,6750,9111,20269,-0.921717878,0.379489325,-0.04678694,-0.392411049,0.918296417,-16710,16692,28104,181,-682,598,659,-325,392,1
263878420,9954,15243,7111,-0.927246034,0.359445523,-0.081954436,-0.405410381,0.910129612,-10586,28514,2570,386,1147,785,643,-337,377,1
263898420,8816,14035,4965,-0.937400313,0.331595724,-0.082538522,-0.455294242,0.886080306,-13208,26110,-834,2443,1579,-16,641,-309,417,1
263918420,32764,-1351,-1369,-0.955007691,0.283004329,-0.054554186,-0.535309575,0.842254929,-31402,-4492,-11938,3906,2448,110,629,-295,426,1
263938420,32764,2228,32764,-0.954461731,0.288968368,-0.026439614,-0.595427565,0.80214157,-31332,3590,-9446,3167,-34,-206,605,-241,467,1
263958420,32764,-32764,28652,-0.956073942,0.283871269,-0.022523804,-0.595420936,0.802267011,-31338,-730,-17536,68,304,-97,611,-239,456,1
263978420,7801,8397,-4833,-0.964573156,0.253423523,-0.018121668,-0.553676169,0.831851956,-16036,16202,-17952,-1931,1329,-671,615,-247,483,1
263998420,4633,14382,-22486,-0.969213396,0.235306554,0.004420649,-0.568631694,0.821838422,-22506,28910,12860,958,853,-655,595,-257,504,1
264018420,9641,2717,-13807,-0.975172162,0.210389301,0.008087619,-0.610027611,0.79155384,-12486,5854,30176,2110,7,207,593,-233,563,1
264038420,24578,-17656,-18778,-0.977384338,0.198097331,0.009786339,-0.631768497,0.774116855,17108,30548,21502,1158,597,216,585,-231,548,1
264058420,21919,1700,-17542,-0.980275592,0.182839429,0.006049521,-0.609947689,0.79151772,11704,3602,24468,-1113,730,-9,577,-243,517,1
264078420,13776,12832,-4444,-0.983827015,0.161559995,-0.018186005,-0.590255527,0.806201767,-4642,25702,-14512,-990,552,80,575,-243,562,1
264098420,17999,2953,-4441,-0.988311205,0.130386483,-0.027006128,-0.587992126,0.807661539,3658,5150,-13510,-106,917,238,589,-251,583,1
264118420,15822,41,-1112,-0.990412679,0.110265665,-0.032447153,-0.581221882,0.812336259,-798,-1010,-6008,-329,687,274,603,-249,571,1
264138420,16807,-465,-1036,-0.992047684,0.091442233,-0.037381253,-0.56706823,0.822098427,1116,-2218,-5216,-690,646,268,607,-245,581,1
264158420,17429,2137,22,-0.993261863,0.074375384,-0.040561062,-0.551741827,0.832348339,2306,3026,-2460,-722,668,29,597,-257,598,1
264178420,15636,2301,-1092,-0.994388426,0.056038996,-0.040000506,-0.540445831,0.83977614,-1316,3396,-4138,-507,663,-127,597,-263,578,1
264198420,15255,3412,618,-0.994915644,0.043864233,-0.042560284,-0.533880496,0.843868984,-2100,5606,-208,-287,564,-70,593,-267,606,1
264218420,15067,2326,-1169,-0.995241851,0.02724611,-0.045722678,-0.538266391,0.840886705,-2486,3258,-3328,246,651,63,577,-255,614,1
264238420,15924,2658,-759,-0.995297413,0.013264798,-0.049723731,-0.548779977,0.833807824,-776,3802,-2010,543,608,88,569,-247,603,1
264258420,15947,876,-781,-0.995325049,-0.001015607,-0.050653287,-0.565144928,0.822708797,-728,94,-1542,828,688,96,581,-263,623,1
264278420,16007,551,-768,-0.995067948,-0.01774794,-0.051716876,-0.582690394,0.810260532,-600,-596,-960,899,800,94,597,-243,629,1
264298420,15875,707,-1596,-0.994360924,-0.037647016,-0.052770393,-0.600746304,0.79683247,-844,-324,-2014,946,871,83,599,-265,657,1
264318420,15457,980,-1634,-0.993376851,-0.056484498,-0.054141944,-0.61687839,0.784274302,-1644,188,-1430,857,878,69,589,-253,666,1
264338420,15282,487,-401,-0.992091917,-0.073624194,-0.055061823,-0.629671231,0.773916824,-1954,-838,1632,697,844,60,595,-267,653,1
264358420,17411,145,-133,-0.99111685,-0.086422566,-0.054607021,-0.637510942,0.767496912,2354,-1546,2640,430,726,63,581,-269,698,1
264378420,17222,-163,-1199,-0.990051059,-0.097592274,-0.052675206,-0.640579972,0.765035357,2002,-2112,830,185,593,40,589,-257,706,1
264398420,15460,-815,-1581,-0.989495276,-0.10518897,-0.048515711,-0.638474369,0.767086474,-1498,-3318,284,-99,395,23,595,-265,679,1
264418420,15089,-326,-1481,-0.988966487,-0.111267228,-0.045123678,-0.633568563,0.771366876,-2226,-2194,696,-245,340,30,573,-247,709,1
264438420,15716,2024,-2794,-0.987716826,-0.12126443,-0.046654296,-0.629705986,0.774454366,-946,2598,-1666,-177,423,47,577,-255,714,1
264458420,14520,4810,-2626,-0.985900728,-0.132056156,-0.053881528,-0.628566574,0.774906747,-3288,8108,-968,-23,477,42,575,-249,738,1
264478420,14340,2959,-2008,-0.983685933,-0.145418234,-0.058967847,-0.633008864,0.770894274,-3564,4126,758,271,663,55,577,-247,737,1
264498420,15556,793,-2703,-0.980913395,-0.161749037,-0.061821471,-0.641693555,0.763425212,-1036,-442,-106,503,787,102,573,-241,740,1
264518420,15683,505,-2627,-0.97834098,-0.175356515,-0.064517582,-0.650642138,0.755550286,-696,-1116,498,522,689,97,557,-251,752,1
264538420,15733,1121,-2803,-0.975871081,-0.187069627,-0.068467663,-0.662227333,0.745020848,-516,-2,532,678,624,100,547,-255,769,1
264558420,15787,525,-2938,-0.97294239,-0.19985174,-0.07298623,-0.674079558,0.733823402,-312,-1354,682,713,677,123,559,-261,765,1
264578420,17652,6,-3752,-0.969829254,-0.212664664,-0.077585766,-0.685705367,0.722443365,3526,-2606,-526,729,687,196,519,-271,804,1
264598420,18311,612,-5132,-0.966680393,-0.223897049,-0.084131961,-0.696366712,0.71136885,4938,-1548,-2938,699,595,197,549,-265,797,1
264618420,16462,4641,-5184,-0.963900967,-0.231920177,-0.093859419,-0.704311017,0.702246603,1306,6376,-2830,552,394,126,533,-269,798,1
264638420,14927,6753,-4773,-0.960781731,-0.238285394,-0.108627681,-0.713516742,0.69068861,-1678,10240,-1788,672,354,148,533,-273,811,1
264658420,15553,5165,-4786,-0.957547141,-0.244235475,-0.122802678,-0.726224201,0.674822789,-312,6494,-1606,916,392,193,531,-287,832,1
264678420,17127,2867,-6487,-0.953931067,-0.253150942,-0.132157916,-0.738911726,0.659025401,2958,1438,-4770,927,462,185,531,-295,824,1
264698420,16374,2626,-6702,-0.951075284,-0.260611394,-0.138465041,-0.74850983,0.646764642,1548,740,-4976,714,353,121,505,-303,843,1
264718420,15010,3406,-7223,-0.948254436,-0.266997846,-0.145410815,-0.755419761,0.63710448,-1108,2118,-5852,575,238,125,521,-321,831,1
264738420,14908,3317,-6857,-0.945810642,-0.271168793,-0.153132232,-0.761678528,0.627732372,-1228,1682,-4964,560,171,172,523,-315,851,1
264758420,14475,3774,-6807,-0.943347242,-0.275059856,-0.161359721,-0.766343975,0.619946716,-2016,2352,-4740,472,144,184,521,-305,846,1
264778420,14509,3846,-6827,-0.94095204,-0.278173456,-0.169762969,-0.770132206,0.612962326,-1870,2220,-4672,433,115,206,533,-327,860,1
264798420,14245,4134,-7270,-0.93856304,-0.280907588,-0.178896781,-0.773772912,0.605794845,-2328,2508,-5498,446,69,225,501,-339,852,1
264818420,13970,3734,-6712,-0.936308205,-0.283280004,-0.186667675,-0.776624605,0.599765267,-2796,1434,-4280,386,80,216,511,-345,847,1
264838420,13635,4094,-6758,-0.933568716,-0.286940105,-0.194839704,-0.779051065,0.594030671,-3380,1910,-4260,366,125,214,505,-351,853,1
264858420,14313,4009,-6337,-0.931088416,-0.289447689,-0.202893597,-0.781765629,0.587758563,-1930,1460,-3292,390,141,226,497,-353,853,1
264878420,14231,4346,-6021,-0.928880746,-0.290662529,-0.21143012,-0.784493223,0.581137598,-2018,1878,-2604,397,110,222,499,-363,848,1
264898420,14367,4635,-5943,-0.926873416,-0.290928992,-0.219930755,-0.787055224,0.574535904,-1680,2188,-2426,389,86,214,495,-373,867,1
264918420,13985,4616,-5536,-0.925115647,-0.291196005,-0.227205435,-0.789242553,0.568748726,-2380,1916,-1590,338,94,180,499,-365,867,1
264938420,14104,4538,-5550,-0.924156729,-0.290053524,-0.23255636,-0.792118741,0.562571978,-2088,1540,-1614,351,96,158,507,-383,905,1
264958420,14510,4433,-5394,-0.923727972,-0.287915949,-0.23724774,-0.794356788,0.557500403,-1258,1176,-1370,291,40,157,501,-371,854,1
264978420,14012,5218,-5858,-0.922223162,-0.287274295,-0.243678013,-0.796111997,0.552217178,-2246,2612,-2380,306,34,132,511,-389,875,1
264998420,13909,5763,-5708,-0.920690021,-0.2870421,-0.250314049,-0.797039727,0.548047734,-2400,3518,-2084,238,39,127,485,-381,861,1
265018420,14078,5425,-5753,-0.918991003,-0.287456848,-0.256221667,-0.797964329,0.544042503,-2006,2628,-2156,238,71,130,499,-395,867,1
265038420,14053,5179,-6086,-0.917232241,-0.288313903,-0.26157255,-0.799429066,0.539382637,-1998,1946,-2814,279,80,123,493,-399,863,1
265058420,13860,5120,-5604,-0.915524524,-0.289451579,-0.266443493,-0.800395768,0.535634061,-2318,1670,-1790,228,110,122,493,-405,857,1
265078420,14194,4843,-5596,-0.914661542,-0.289337933,-0.269572942,-0.801831752,0.531942271,-1596,972,-1730,218,114,114,503,-403,877,1
265098420,14159,5605,-6076,-0.912796911,-0.291117795,-0.274200138,-0.802212032,0.529103873,-1640,2410,-2694,181,106,108,485,-413,884,1
265118420,14154,5741,-6033,-0.911315054,-0.291631758,-0.278875486,-0.801907398,0.527249001,-1600,2536,-2590,136,39,121,473,-403,879,1
265138420,14593,5163,-5873,-0.910251603,-0.291790579,-0.282320015,-0.802216679,0.525017571,-672,1228,-2248,157,52,121,489,-411,901,1
265158420,14486,5309,-5832,-0.909596736,-0.291315312,-0.285116398,-0.802621346,0.5229614,-846,1414,-2138,136,75,124,475,-405,897,1
265178420,14591,6118,-5494,-0.909010101,-0.291000875,-0.287295012,-0.802210301,0.522434734,-618,2976,-1466,56,70,106,493,-407,876,1
265198420,14459,6113,-5262,-0.908499802,-0.290650208,-0.289625447,-0.801858479,0.521802526,-864,2896,-1012,58,69,109,483,-413,887,1
265218420,14155,6220,-5295,-0.907630792,-0.290697152,-0.292105881,-0.801840976,0.520446207,-1448,3032,-1074,96,103,101,463,-417,882,1
265238420,14370,5822,-5260,-0.906588908,-0.29057874,-0.295716719,-0.802000999,0.518272435,-998,2156,-1028,131,76,94,477,-431,879,1
