timestamp,ax,ay,az,roll1,roll2,pitch,yaw1,yaw2,fx,fy,fz,gx,gy,gz,mx,my,mz,step
135672728,16027,-2271,-2276,0.219846204,-0.975534544,0.139173101,-0.990268069,-0.139173101,0,0,0,56,-5,11,339,427,370,0
135692728,15957,-2109,-2147,0.219846204,-0.975534544,0.139173101,-0.990268069,-0.139173101,0,0,0,47,-8,13,327,415,362,0
135712728,16047,-2112,-2132,0.219846204,-0.975534544,0.139173101,-0.990268069,-0.139173101,0,0,0,70,4,12,351,425,371,0
135732728,16072,-1988,-2159,0.219846204,-0.975534544,0.139173101,-0.990268069,-0.139173101,0,0,0,64,-5,14,329,427,353,0
135752728,15997,-1993,-2115,0.219846204,-0.975534544,0.139173101,-0.990268069,-0.139173101,0,0,0,72,-9,14,335,425,358,0
135772728,16069,-2102,-2313,0.219846204,-0.975534544,0.137444546,-0.990268069,-0.139173101,0,0,0,76,-4,5,341,421,331,0
135792732,15999,-2146,-2264,0.219846204,-0.975534544,0.137444546,-0.990268069,-0.139173101,0,0,0,68,-19,10,341,435,342,0
135812732,16011,-2164,-2295,0.218143241,-0.975916762,0.137444546,-0.990268069,-0.139173101,0,0,0,68,-17,10,337,421,365,0
135832732,15995,-2151,-2273,0.218143241,-0.975916762,0.137444546,-0.990268069,-0.139173101,0,0,0,77,-5,9,347,433,364,0
135852732,15972,-2145,-2265,0.218143241,-0.975916762,0.137444546,-0.990268069,-0.139173101,0,0,0,76,-4,9,335,439,372,0
135872732,15995,-2189,-2223,0.218143241,-0.975916762,0.137444546,-0.990268069,-0.139173101,0,0,0,79,-18,12,343,431,376,0
135892732,16102,-2497,-2280,0.218143241,-0.975916762,0.137444546,-0.990268069,-0.139173101,0,0,0,47,14,10,333,421,366,0
135912732,15795,-2109,-2288,0.218143241,-0.975916762,0.137444546,-0.990268069,-0.139173101,0,0,0,46,-17,20,335,421,357,0
135932732,16091,-2104,-2100,0.218143241,-0.975916762,0.137444546,-0.990268069,-0.139173101,0,0,0,41,-16,15,335,425,387,0
135952732,16020,-2155,-2179,0.218143241,-0.975916762,0.137444546,-0.990268069,-0.139173101,0,0,0,48,-5,18,337,437,356,0
135972732,15916,-2016,-2108,0.218143241,-0.975916762,0.137444546,-0.990268069,-0.139173101,0,0,0,35,-22,22,323,429,369,0
135992732,16015,-2091,-2216,0.218143241,-0.975916762,0.137444546,-0.990268069,-0.139173101,0,0,0,56,-12,18,327,433,354,0
136012732,16052,-2274,-2260,0.218143241,-0.975916762,0.137444546,-0.990268069,-0.139173101,0,0,0,62,-22,24,345,429,376,0
136032732,16011,-2289,-2257,0.218143241,-0.975916762,0.137444546,-0.990268069,-0.139173101,0,0,0,38,-11,17,351,431,372,0
136052732,15976,-2112,-2420,0.218143241,-0.975916762,0.137444546,-0.990268069,-0.139173101,0,0,0,14,-16,29,339,431,355,0
136072732,15960,-2176,-2493,0.218143241,-0.975916762,0.137444546,-0.990268069,-0.139173101,0,0,0,24,-22,33,329,443,369,0
136092732,15972,-2209,-2545,0.218143241,-0.975916762,0.137444546,-0.990268069,-0.139173101,0,0,0,30,-32,34,337,443,376,0
136112732,16050,-2206,-2549,0.218143241,-0.975916762,0.137444546,-0.990268069,-0.139173101,0,0,0,29,-45,29,327,433,376,0
136132732,16021,-2109,-2544,0.218143241,-0.975916762,0.137444546,-0.990268069,-0.139173101,0,0,0,47,-42,34,335,423,349,0
136152732,15982,-1985,-2479,0.218143241,-0.975916762,0.137444546,-0.990268069,-0.139173101,0,0,0,43,-58,34,337,417,367,0
136172736,15993,-2166,-2350,0.218143241,-0.975916762,0.137444546,-0.990268069,-0.139173101,0,0,0,51,-60,28,335,429,360,0
136192736,16075,-2114,-2263,0.218143241,-0.975916762,0.137444546,-0.990268069,-0.139173101,0,0,0,38,-53,36,335,415,379,0
136212736,16004,-1913,-2147,0.218143241,-0.975916762,0.137444546,-0.990268069,-0.139173101,0,0,0,23,-58,35,343,435,345,0
136232736,16025,-2083,-2123,0.218143241,-0.975916762,0.137444546,-0.990268069,-0.139173101,0,0,0,42,-55,32,345,429,368,0
136252736,16029,-2140,-2139,0.218143241,-0.975916762,0.137444546,-0.990268069,-0.139173101,0,0,0,48,-74,34,327,439,358,0
136272736,16037,-2114,-2121,0.218143241,-0.975916762,0.135715572,-0.990268069,-0.139173101,0,0,0,41,-60,35,335,425,381,0
136292736,15997,-2045,-2005,0.218143241,-0.975916762,0.135715572,-0.990268069,-0.139173101,0,0,0,54,-47,31,343,419,352,0
136312736,15961,-1979,-2050,0.218143241,-0.975916762,0.135715572,-0.990268069,-0.139173101,0,0,0,63,-41,32,319,419,359,0
136332736,16115,-1989,-1943,0.218143241,-0.975916762,0.135715572,-0.990268069,-0.139173101,0,0,0,41,-50,41,329,429,358,0
136352736,15968,-2108,-1750,0.218143241,-0.975916762,0.135715572,-0.990509463,-0.137444546,0,0,0,44,-58,46,345,431,358,0
136372736,16238,-2192,-1586,0.218143241,-0.975916762,0.135715572,-0.990509463,-0.137444546,0,0,0,25,-73,40,327,429,339,0
136392736,15947,-1824,-1795,0.218143241,-0.975916762,0.135715572,-0.990509463,-0.137444546,0,0,0,20,-37,39,337,441,351,0
136412736,15931,-1905,-1842,0.218143241,-0.975916762,0.135715572,-0.990509463,-0.137444546,0,0,0,38,-22,36,341,411,341,0
136432736,15842,-2123,-1722,0.218143241,-0.975916762,0.135715572,-0.990509463,-0.137444546,0,0,0,47,-28,32,339,417,354,0
136452736,15982,-1640,-1465,0.218143241,-0.975916762,0.135715572,-0.99074784,-0.135715572,0,0,0,7,-33,39,347,427,375,0
136472736,16191,-1693,-1197,0.218143241,-0.975916762,0.133986185,-0.99074784,-0.135715572,0,0,0,3,-35,55,345,415,359,0
136492736,16314,-2267,-1418,0.218143241,-0.975916762,0.133986185,-0.99074784,-0.135715572,0,0,0,25,-41,52,325,429,358,0
136512736,16280,-2134,-1433,0.218143241,-0.975916762,0.133986185,-0.9909832,-0.133986185,0,0,0,-20,-27,49,331,423,329,0
136532736,16103,-1693,-1649,0.218143241,-0.975916762,0.133986185,-0.9909832,-0.133986185,0,0,0,-26,-8,51,347,421,348,0
136552740,16015,-1562,-1466,0.218143241,-0.975916762,0.133986185,-0.9909832,-0.133986185,0,0,0,18,-33,49,349,425,362,0
136572740,16083,-1504,-1316,0.218143241,-0.975916762,0.133986185,-0.9909832,-0.133986185,0,0,0,3,-68,54,349,413,333,0
136592740,16307,-1218,-1205,0.218143241,-0.975916762,0.13225639,-0.99121554,-0.13225639,554,1952,1896,-1,-90,72,343,415,327,0
136612740,16416,-640,-903,0.216439614,-0.976296007,0.130526192,-0.991671162,-0.128795597,752,3054,2418,-32,-119,98,353,421,351,0
136632740,16298,-885,-28,0.214735327,-0.976672278,0.127064609,-0.992546152,-0.121869343,490,2482,4040,-2,-172,113,345,427,350,0
136652740,16309,-1139,855,0.213030386,-0.977045574,0.123601477,-0.993767919,-0.111468932,456,1848,5500,-26,-277,121,349,421,366,0
136672740,16573,-411,1847,0.207911691,-0.978147601,0.118403968,-0.995561965,-0.094108313,910,3172,6994,-135,-441,160,331,435,346,0
136692740,16699,792,2826,0.199367934,-0.979924705,0.109734311,-0.997440783,-0.071497444,1068,5358,8262,-277,-628,237,341,401,331,0
136712740,16661,1573,3377,0.190808995,-0.981627183,0.0975829,-0.99897057,-0.045362988,894,6564,8520,-283,-770,320,345,423,345,0
136732740,16465,1279,3449,0.185666615,-0.982612797,0.085416923,-0.999780683,-0.02094242,422,5554,7818,-186,-782,349,347,415,329,0
136752740,16829,519,2844,0.182235525,-0.983254908,0.076719028,-1,6.12E-17,1108,3698,5880,-55,-666,266,361,401,328,0
136772740,18087,145,4023,0.183951351,-0.982935349,0.069756474,-0.999780683,0.02094242,3604,2704,7564,73,-678,220,345,401,315,0
136792740,19760,152,5729,0.183951351,-0.982935349,0.064532308,-0.998719357,0.05059294,6954,2492,10060,66,-952,229,347,387,310,0
136812740,21137,1909,8220,0.183951351,-0.982935349,0.054078813,-0.996637387,0.081938509,9748,5772,14082,-9,-950,250,343,419,301,0
136832740,21320,4760,10277,0.189095443,-0.981958713,0.040131793,-0.994150964,0.107999356,10162,11122,17362,198,-743,331,355,407,281,0
136852740,22419,5564,10556,0.204496052,-0.978867389,0.026176948,-0.9909832,0.133986185,12434,12274,17036,672,-771,398,343,381,260,0
136872740,24548,6238,10263,0.231747903,-0.972775878,0.010471784,-0.986855716,0.161603821,16802,13080,15524,1051,-867,568,365,393,283,0
136892740,25565,5303,8188,0.267238376,-0.963630453,-0.001745328,-0.981627183,0.190808995,19008,10688,10288,1418,-1147,645,359,383,273,0
136912740,29419,-305,6178,0.313992456,-0.949425478,-0.003490651,-0.974761194,0.223250116,26952,-730,5080,1984,-1407,468,357,373,297,0
136932744,25765,-5686,2990,0.356737999,-0.934204474,0.00698126,-0.967267753,0.253757945,19912,-11324,-2396,1865,-1452,288,347,377,291,0
136952744,24662,-9553,849,0.376224263,-0.926528631,0.01396218,-0.958322574,0.285688367,18042,-18950,-7834,786,-1690,379,339,381,246,0
136972744,21158,-5603,2296,0.374606593,-0.927183855,0.00698126,-0.944948912,0.327217899,11458,-11164,-6270,-215,-2072,560,365,359,254,0
136992744,19067,-3000,-1460,0.381070376,-0.924546034,0,-0.929776486,0.368124553,7850,-6094,-15308,81,-2329,566,391,345,239,0
137012744,20064,43,4168,0.368124553,-0.929776486,-0.012217001,-0.909236109,0.416280792,10432,-348,-5424,-721,-2434,388,355,369,206,0
137032744,17633,2465,-563,0.350207381,-0.936672189,-0.029666244,-0.89179753,0.452434709,6294,4060,-16324,-904,-2311,210,371,343,168,0
137052744,15319,5200,952,0.33545157,-0.942057453,-0.045362988,-0.870355696,0.49242356,2330,9130,-14490,-693,-2344,66,359,357,139,0
137072744,11957,2058,-377,0.327217899,-0.944948912,-0.059306374,-0.851726934,0.523985906,-3658,2254,-18300,-444,-2247,231,373,333,130,0
137092744,8088,-1014,-1184,0.320612991,-0.947210278,-0.068015291,-0.836764313,0.547563223,-10800,-4480,-20752,-458,-1986,437,379,327,108,0
137112744,6790,-1905,-1495,0.312334919,-0.949972052,-0.076719028,-0.825113498,0.564967003,-12978,-6652,-21918,-631,-1709,442,379,323,82,0
137132744,4931,-983,-2178,0.3007058,-0.953716951,-0.087155743,-0.820151876,0.572145873,-16424,-5054,-23620,-670,-1457,397,349,311,81,0
137152744,1969,52,-2850,0.292371705,-0.956304756,-0.101056297,-0.820151876,0.572145873,-22328,-3222,-24950,-548,-1076,331,361,309,66,0
137172744,861,879,-2148,0.285688367,-0.958322574,-0.116670737,-0.821149209,0.570713568,-24686,-1904,-23282,-392,-693,246,353,299,-13,0
137192744,680,-320,-845,0.280666709,-0.959805292,-0.121869343,-0.821149209,0.570713568,-25172,-4722,-20402,-268,-346,157,347,307,34,0
137212744,1003,-120,1217,0.273959219,-0.96174131,-0.127064609,-0.821149209,0.570713568,-24698,-4478,-15994,-390,11,113,343,305,44,0
137232744,2227,725,4976,0.270600446,-0.962691746,-0.130526192,-0.81613759,0.577857624,-22304,-2864,-8382,-265,187,74,353,301,60,0
137252744,5487,1183,9244,0.268919821,-0.963162567,-0.130526192,-0.814115518,0.580702956,-15680,-1944,2,-60,335,-48,339,303,50,0
137272744,8115,1579,11473,0.26387305,-0.964557418,-0.128795597,-0.81613759,0.577857624,-10466,-1104,4508,-133,500,-120,365,293,49,0
137292744,10338,1047,12662,0.258819045,-0.965925826,-0.125333234,-0.821149209,0.570713568,-6148,-2072,7048,-139,588,-195,363,305,55,0
137312748,12687,1122,11644,0.252069358,-0.96770917,-0.120136839,-0.830012285,0.557745109,-1688,-1774,5338,-166,758,-220,353,311,78,0
137332748,13793,2129,9188,0.245307386,-0.96944535,-0.11493715,-0.844327926,0.535826795,142,450,972,-144,936,-294,363,305,58,0
137352748,18288,13027,31132,0.238533458,-0.97113428,-0.121869343,-0.840566603,0.54170821,9020,22282,-20502,-251,189,-178,357,299,76,0
137372748,28995,5796,12341,0.223250116,-0.974761194,-0.120136839,-0.85445883,0.519519112,30304,7668,7692,-414,740,-342,351,323,87,0
137392748,22580,9512,9626,0.231747903,-0.972775878,-0.104528463,-0.863395551,0.504527624,17094,15848,2736,823,568,-653,353,327,114,0
137412748,13661,4349,-2258,0.252069358,-0.96770917,-0.076719028,-0.877982975,0.478691858,-1074,6414,-20612,1541,541,-729,359,341,90,0
137432748,5627,360,-6110,0.280666709,-0.959805292,-0.040131793,-0.901832526,0.432085749,-17846,-618,-27138,1772,1001,-694,369,349,112,0
137452748,5889,587,-42,0.299040792,-0.954240329,-0.015707317,-0.918446381,0.395545503,-18146,726,-13324,1222,1161,-659,369,365,128,0
137472748,16902,2051,22949,0.315649037,-0.948876012,0.001745328,-0.925870585,0.377840787,3296,4276,-31450,1003,1397,-498,375,375,136,0
137492748,32764,-5333,-360,0.304033061,-0.952661481,0.00698126,-0.947210278,0.320612991,-30904,-10580,-11464,-445,2004,-112,369,393,156,0
137512748,29388,-3490,2115,0.304033061,-0.952661481,0.022687334,-0.960293686,0.278991106,27414,-6318,-5026,190,1496,-453,379,395,187,0
137532748,16291,1389,4862,0.315649037,-0.948876012,0.038387809,-0.96944535,0.245307386,892,4166,1782,644,1378,-600,381,395,189,0
137552748,13059,-3729,4359,0.323917418,-0.946085359,0.06104854,-0.977783237,0.209618563,-5824,-5604,2000,524,1541,-583,393,419,198,0
137572748,14770,-1263,3617,0.323917418,-0.946085359,0.076719028,-0.984807753,0.173648178,-2576,24,1688,174,1561,-557,391,413,213,0
137592748,15140,-2633,3377,0.323917418,-0.946085359,0.092370587,-0.990509463,0.137444546,-1980,-2294,2418,127,1546,-464,385,413,241,0
137612748,17442,-3625,1607,0.318959309,-0.94776841,0.101056297,-0.995561965,0.094108313,2504,-3994,176,-202,1698,-242,381,421,250,0
137632748,18459,-2064,2210,0.312334919,-0.949972052,0.107999356,-0.998440764,0.055821505,4474,-584,2728,-180,1656,-205,379,425,299,0
137652748,18890,-3562,1882,0.318959309,-0.94776841,0.118403968,-0.999742609,0.022687334,5338,-3294,3156,263,1367,-302,393,445,310,0
137672748,17656,-7775,2282,0.328866647,-0.94437637,0.133986185,-0.999986292,-0.005235964,2914,-11372,4900,461,1177,-308,379,425,311,0
137692748,14676,-10218,2570,0.330514393,-0.943800952,0.158158067,-0.99955986,-0.029666244,-2936,-15644,6290,120,1117,-396,377,437,338,0
137712752,14727,-6648,1076,0.317304656,-0.948323655,0.178802215,-0.998629535,-0.052335956,-2666,-7654,4004,-548,1143,-468,387,431,332,0
137732752,14532,-3230,1455,0.297374874,-0.9547608,0.192521967,-0.997440783,-0.071497444,-2880,-122,5400,-799,1063,-485,379,453,341,0
137752752,14358,790,1874,0.280666709,-0.959805292,0.19765734,-0.996345296,-0.085416923,-3104,8314,6704,-666,901,-369,375,451,353,0
137772752,14613,1751,2435,0.265556117,-0.964095404,0.19765734,-0.995396198,-0.095845753,-2540,10276,8226,-520,840,-259,363,435,353,0
137792752,15441,-465,3397,0.262189179,-0.965016494,0.19765734,-0.994521895,-0.104528463,-864,5750,10482,-86,718,-200,369,455,366,0
137812752,15020,-1385,3137,0.262189179,-0.965016494,0.202787295,-0.993372766,-0.11493715,-1644,4022,10266,73,728,-300,363,441,353,0
137832752,15558,1993,3791,0.258819045,-0.965925826,0.204496052,-0.992114701,-0.125333234,-474,10988,11964,-103,868,-337,349,449,376,0
137852752,16273,4032,6299,0.258819045,-0.965925826,0.201077921,-0.99121554,-0.13225639,996,15030,17284,73,774,-302,359,451,376,0
137872752,17193,1692,6360,0.268919821,-0.963162567,0.199367934,-0.990268069,-0.139173101,2834,10192,17644,525,722,-308,345,465,376,0
137892752,16680,-1665,3308,0.28736052,-0.957822495,0.202787295,-0.987959866,-0.154710386,1854,3424,11904,859,826,-346,361,457,425,0
137912752,16186,-3094,1698,0.302369891,-0.953190668,0.207911691,-0.985407898,-0.170209499,974,676,9136,651,829,-327,353,457,413,0
137932752,16187,-4102,417,0.31067643,-0.950515732,0.213030386,-0.982287251,-0.187381315,1102,-1206,7066,381,850,-213,341,469,436,0
137952752,16520,-4625,-2354,0.317304656,-0.948323655,0.218143241,-0.977045574,-0.213030386,1940,-2120,2182,226,1027,-126,327,455,455,0
137972752,17181,-3470,-4728,0.318959309,-0.94776841,0.219846204,-0.97113428,-0.238533458,3458,288,-1832,113,988,-44,321,461,459,0
137992752,18370,-2048,-6053,0.322265695,-0.94664926,0.218143241,-0.964095404,-0.265556117,6066,3178,-3666,138,992,-59,327,455,461,0
138012752,19712,-741,-6401,0.332161132,-0.943222658,0.213030386,-0.956304756,-0.292371705,8978,5700,-3512,390,928,-88,319,461,467,0
138032752,22233,-1058,-4056,0.348572047,-0.937281989,0.207911691,-0.951594404,-0.307356618,14186,4882,1830,672,633,-149,313,479,490,0
138052752,22959,-3494,-1240,0.366501227,-0.930417568,0.206204185,-0.949425478,-0.313992456,15708,-148,7784,855,348,-232,311,477,519,0
138072752,22544,7,-1683,0.374606593,-0.927183855,0.201077921,-0.949972052,-0.312334919,14854,6840,6824,342,111,-115,295,477,481,0
138092756,22274,3877,2165,0.36162457,-0.932323801,0.190808995,-0.956813584,-0.290702194,14086,14338,13984,-375,-389,242,303,469,504,0
138112756,22863,4059,5163,0.355106962,-0.934825676,0.1719291,-0.966823389,-0.255445758,14836,14072,19012,-44,-869,460,315,475,488,0
138132756,21153,865,8998,0.355106962,-0.934825676,0.154710386,-0.977415894,-0.211324796,10938,6966,25374,242,-1238,520,323,481,487,0
138152756,23100,-113,12438,0.345298199,-0.938493023,0.144356201,-0.987413807,-0.158158067,14434,4666,30636,-202,-1376,324,339,481,485,0
138172756,19995,3764,14225,0.317304656,-0.948323655,0.142628934,-0.99317065,-0.116670737,8020,12488,-32664,-1109,-816,-7,343,477,458,0
138192756,22269,-13,4516,0.31067643,-0.950515732,0.142628934,-0.99505557,-0.09931975,12444,4824,12556,-187,-325,-108,337,493,458,0
138212756,28334,-3254,1483,0.328866647,-0.94437637,0.133986185,-0.996778878,-0.080198924,24434,-2056,5732,813,-754,299,347,511,459,0
138232756,24481,-5553,-2225,0.36325123,-0.931691228,0.127064609,-0.99756405,-0.069756474,16628,-7020,-2194,1499,-730,364,373,503,463,0
138252756,24313,-9441,-5786,0.400349033,-0.91636273,0.118403968,-0.998806137,-0.04884977,16188,-15194,-10120,1669,-1282,557,369,503,487,0
138272756,18293,-6125,-5153,0.441505853,-0.89725837,0.107999356,-0.999961923,-0.008726535,4060,-8892,-10184,1839,-2140,693,389,495,458,0
138292756,23956,-6246,-2079,0.464842046,-0.885393626,0.095845753,-0.998889875,0.047106451,15386,-9446,-5756,1034,-2594,698,449,501,433,0
138312756,23631,-4432,-6199,0.471011881,-0.882126866,0.087155743,-0.996778878,0.080198924,14822,-6052,-15260,257,-1768,541,461,503,427,0
138332756,22736,-1396,-3542,0.478691858,-0.877982975,0.078459096,-0.992965508,0.118403968,13136,-172,-11132,253,-1948,422,475,491,426,0
138352756,19769,-1493,-3503,0.47715876,-0.878817113,0.071497444,-0.985703469,0.16848938,7430,-604,-12774,-64,-2537,313,509,503,391,0
138372756,16057,-1947,-4082,0.474088209,-0.880477354,0.0662739,-0.975916762,0.218143241,336,-1752,-15646,-208,-2612,313,515,491,337,0
138392756,13873,-3176,-3616,0.467929814,-0.88376563,0.06104854,-0.963630453,0.267238376,-3630,-4500,-16336,-439,-2642,368,521,471,301,0
138412756,14026,-4716,-3660,0.450877541,-0.892585818,0.054078813,-0.949425478,0.313992456,-2850,-7860,-17982,-915,-2612,330,539,473,251,0
138432756,12018,-4043,-4946,0.427357863,-0.90408255,0.045362988,-0.936059536,0.351841648,-6380,-6810,-21912,-1206,-2402,330,541,483,222,0
138452756,7755,-629,-6058,0.403545296,-0.914959668,0.026176948,-0.926528631,0.376224263,-14498,-402,-25156,-1326,-2145,404,543,451,164,0
138472760,5990,535,-6052,0.381070376,-0.924546034,0.005235964,-0.919135339,0.39394191,-17756,1314,-25776,-1161,-1908,423,533,435,134,0
138492760,4443,-121,-5137,0.371367836,-0.928485827,-0.008726535,-0.914253955,0.405141587,-20668,-580,-24330,-677,-1666,439,535,427,87,0
138512760,3645,-2718,-3377,0.369746757,-0.929132572,-0.001745328,-0.910683661,0.41310443,-22200,-5966,-20922,-125,-1327,267,529,419,85,0
138532760,2995,-5413,-388,0.371367836,-0.928485827,0.022687334,-0.904827052,0.425779292,-23520,-10892,-14902,79,-946,69,527,429,65,0
138552760,3912,-5450,1563,0.372987783,-0.927836254,0.052335956,-0.900318771,0.435231099,-21596,-9918,-11132,200,-540,-159,507,443,57,0
138572760,5195,-3898,2313,0.371367836,-0.928485827,0.074978727,-0.89725837,0.441505853,-18896,-5818,-9804,108,-356,-269,531,437,55,0
138592760,5925,-3246,5196,0.364876784,-0.931055816,0.088894297,-0.891006524,0.4539905,-17326,-3846,-4160,-113,-261,-267,517,435,23,0
138612760,7784,-3041,6719,0.35836795,-0.933580426,0.09931975,-0.888617233,0.458649554,-13470,-3012,-1300,-172,-17,-235,513,441,36,0
138632760,9144,-1337,7127,0.351841648,-0.936059536,0.101056297,-0.887815385,0.460199785,-10698,676,-528,-170,178,-182,507,467,16,0
138652760,9408,-245,5113,0.343659695,-0.939094252,0.106264071,-0.89571176,0.444635179,-10352,3082,-4146,-147,770,-330,513,451,38,0
138672760,12265,1782,10550,0.337095258,-0.941470545,0.113203214,-0.902585284,0.430511097,-4906,7514,7392,37,924,-583,511,467,57,0
138692760,15399,4965,13077,0.332161132,-0.943222658,0.11493715,-0.912834177,0.40833046,1064,14064,13164,71,1263,-474,529,469,48,0
138712760,28046,5297,17292,0.323917418,-0.946085359,0.123601477,-0.920504853,0.390731128,26184,14934,22078,20,974,-698,515,483,62,0
138732760,28228,1527,691,0.34037955,-0.940288127,0.142628934,-0.932953535,0.359996808,26400,7944,-10560,986,769,-669,517,501,86,0
138752760,18535,-799,367,0.355106962,-0.934825676,0.161603821,-0.946085359,0.323917418,6648,3852,-9976,887,1059,-630,515,519,103,0
138772760,12707,36,2603,0.356737999,-0.934204474,0.170209499,-0.959313975,0.282341457,-5456,5836,-3934,186,1626,-460,529,531,139,0
138792760,17661,-3263,2535,0.348572047,-0.937281989,0.180519145,-0.97113428,0.238533458,4112,-584,-2666,-196,1739,-464,523,541,165,0
138812760,22238,-4127,997,0.337095258,-0.941470545,0.192521967,-0.980955155,0.194234351,13038,-1918,-4352,-402,1720,-561,533,539,160,0
138832760,18860,-704,2139,0.325568154,-0.945518576,0.199367934,-0.987959866,0.154710386,6112,5310,-672,-402,1651,-530,531,541,177,0
138852764,17457,-1095,2109,0.315649037,-0.948876012,0.204496052,-0.99317065,0.116670737,3176,4690,528,-308,1592,-406,531,561,189,0
138872764,18093,-455,1713,0.309016994,-0.951056516,0.211324796,-0.996917334,0.078459096,4390,6250,1004,-205,1626,-509,523,553,242,0
138892764,16792,-2239,2044,0.31067643,-0.950515732,0.219846204,-0.999048222,0.043619387,1770,2864,2806,133,1413,-416,527,557,232,0
138912764,15297,-3817,2484,0.312334919,-0.949972052,0.22835087,-0.999902524,0.01396218,-1196,-118,4674,157,1283,-285,531,547,288,0
138932764,15198,-6251,1802,0.309016994,-0.951056516,0.241921896,-0.99992537,-0.012217001,-1320,-4706,4164,-81,1247,-297,527,557,287,0
138952764,15977,-5159,2224,0.302369891,-0.953190668,0.252069358,-0.999390827,-0.034899497,368,-2104,5770,-224,1148,-311,537,561,309,0
138972764,15584,-3679,2632,0.297374874,-0.9547608,0.258819045,-0.99853667,-0.054078813,-292,1190,7218,-155,1028,-307,521,587,322,0
138992764,15553,-4232,1990,0.290702194,-0.956813584,0.268919821,-0.997440783,-0.071497444,-240,366,6438,-190,939,-340,517,583,329,0
139012764,14872,-1439,2449,0.284015345,-0.958819735,0.273959219,-0.996345296,-0.085416923,-1458,6284,7868,-250,936,-368,509,587,329,0
139032764,14511,125,2151,0.275637356,-0.961261696,0.275637356,-0.99505557,-0.09931975,-2092,9556,7696,-276,905,-326,511,581,357,0
139052764,14641,-1346,2142,0.272280247,-0.962217994,0.277314653,-0.993571856,-0.113203214,-1786,6600,8084,-27,802,-273,493,591,349,0
139072764,14710,-1330,2614,0.273959219,-0.96174131,0.277314653,-0.992546152,-0.121869343,-1600,6646,9350,130,659,-212,483,603,364,0
139092764,15671,-511,1636,0.272280247,-0.962217994,0.275637356,-0.99121554,-0.13225639,362,8278,7694,41,708,-176,477,609,390,0
139112764,16240,-442,2000,0.273959219,-0.96174131,0.273959219,-0.989015863,-0.147809411,1558,8372,8902,160,830,-214,493,601,410,0
139132764,16516,-507,1912,0.280666709,-0.959805292,0.273959219,-0.986855716,-0.161603821,2170,8192,9164,324,768,-237,495,607,427,0
139152764,16668,-1252,1662,0.289031797,-0.957319498,0.273959219,-0.984807753,-0.173648178,2532,6668,9052,389,689,-268,467,617,439,0
139172764,16347,-1516,981,0.3007058,-0.953716951,0.273959219,-0.981627183,-0.190808995,1984,6126,8192,494,811,-263,467,601,432,0
139192764,16203,-3888,417,0.318959309,-0.94776841,0.275637356,-0.977783237,-0.209618563,1808,1330,7646,818,788,-278,453,621,449,0
139212764,17204,-5746,255,0.337095258,-0.941470545,0.280666709,-0.974761194,-0.223250116,3936,-2296,7752,778,588,-297,463,619,465,0
139232768,18118,-5401,24,0.346935652,-0.937888935,0.284015345,-0.97154912,-0.236838146,5922,-1448,7712,485,677,-226,453,599,473,0
139252768,18743,-3752,-580,0.351841648,-0.936059536,0.284015345,-0.96770917,-0.252069358,7310,1900,6972,281,792,-81,443,631,475,0
139272768,19427,-669,-1069,0.353474844,-0.935444031,0.277314653,-0.963162567,-0.268919821,8804,7986,6526,104,916,21,439,631,478,0
139292768,18945,-460,-2757,0.355106962,-0.934825676,0.268919821,-0.957319498,-0.289031797,7938,8160,3720,183,927,20,441,631,500,0
139312768,20082,-856,-3264,0.366501227,-0.930417568,0.260504509,-0.951594404,-0.307356618,10308,7082,3280,520,749,-44,439,615,514,0
139332768,21907,-3338,-3539,0.384295323,-0.923210217,0.255445758,-0.948323655,-0.317304656,14006,1814,3122,820,426,-96,435,631,528,0
139352768,23845,642,-2810,0.400349033,-0.91636273,0.243615012,-0.947210278,-0.320612991,17864,9556,4712,742,126,-44,413,617,539,0
139372768,22835,1737,990,0.41310443,-0.910683661,0.230049737,-0.952129393,-0.305695305,15628,11290,12030,715,-373,76,411,615,556,0
139392768,22704,2323,4162,0.425779292,-0.904827052,0.209618563,-0.960779154,-0.277314653,14954,11812,17620,808,-843,291,445,621,549,0
139412768,23006,1227,8209,0.430511097,-0.902585284,0.190808995,-0.972775878,-0.231747903,15016,8920,24374,529,-1391,464,457,603,545,0
139432768,24617,-617,15516,0.416280792,-0.909236109,0.175366726,-0.987688341,-0.156434465,17608,4670,-28804,-409,-2233,601,465,597,526,0
139452768,20833,2521,19750,0.374606593,-0.927183855,0.166768747,-0.996492859,-0.083677843,9672,10734,-22564,-1590,-1772,398,487,617,461,0
139472768,20527,791,6971,0.350207381,-0.936672189,0.163325962,-0.997314477,-0.073238197,8992,7120,16730,-895,206,71,509,609,461,0
139492768,26265,-1834,918,0.350207381,-0.936672189,0.156434465,-0.997915618,-0.064532308,20372,1544,4062,7,-259,228,521,631,443,0
139512768,27479,-3826,-4052,0.369746757,-0.929132572,0.146083029,-0.997915618,-0.064532308,22724,-2824,-6068,883,-300,361,519,637,462,0
139532768,26295,-6373,-5398,0.403545296,-0.914959668,0.137444546,-0.998341817,-0.057564027,20278,-8274,-9042,1525,-724,386,523,631,458,0
139552768,17387,-6907,-4863,0.457097927,-0.889416373,0.13225639,-0.999780683,-0.02094242,2330,-9698,-9200,2342,-2109,516,533,607,475,0
139572768,23124,-6437,-4088,0.49848774,-0.866896749,0.123601477,-0.999450216,0.033155178,13788,-8948,-9366,1872,-2714,574,547,589,428,0
139592768,23925,-4498,-6082,0.516533329,-0.856267085,0.116670737,-0.997314477,0.073238197,15484,-5188,-14812,834,-2169,409,571,581,407,0
139612768,22579,-3396,-4848,0.525471651,-0.850811109,0.109734311,-0.993571856,0.113203214,12902,-3180,-13664,310,-2109,403,577,601,387,0
139632772,20027,47,-3118,0.522498565,-0.852640164,0.09931975,-0.985109326,0.1719291,8044,3492,-12084,-175,-2797,335,601,587,356,0
139652772,16516,-2781,-3671,0.523985906,-0.851726934,0.092370587,-0.973578903,0.22835087,1384,-2582,-15104,-46,-2860,443,597,587,331,0
139672772,15991,-4718,-4045,0.518027009,-0.85536426,0.083677843,-0.958819735,0.284015345,816,-6874,-17762,-423,-2999,563,585,573,255,0
139692772,15626,-3842,-4977,0.5,-0.866025404,0.069756474,-0.941470545,0.337095258,662,-5528,-21412,-1110,-2900,463,617,549,205,0
139712772,11987,-3936,-6772,0.480223497,-0.877146164,0.055821505,-0.926528631,0.376224263,-6062,-6238,-26460,-1171,-2624,497,609,555,160,0
139732772,5281,-108,-8588,0.461748613,-0.887010833,0.033155178,-0.915662593,0.401947777,-19018,878,-31156,-1177,-2337,563,615,533,113,0
139752772,2222,1248,-7824,0.446197813,-0.894934362,0.005235964,-0.907777479,0.419452082,-24896,2818,-30150,-1008,-1901,631,607,525,92,0
139772772,1988,-148,-6188,0.441505853,-0.89725837,-0.010471784,-0.905568799,0.424199423,-25264,-660,-27054,-484,-1423,552,617,481,54,0
139792772,559,-5283,-3157,0.443071191,-0.89648643,0.003490651,-0.902585284,0.430511097,-28204,-11238,-20804,-97,-950,436,599,489,39,0
139812772,-397,-6709,329,0.443071191,-0.89648643,0.029666244,-0.89725837,0.441505853,-30188,-13356,-13690,20,-434,161,611,483,10,0
139832772,2565,-6627,1588,0.441505853,-0.89725837,0.057564027,-0.89571176,0.444635179,-24188,-12212,-11286,-66,-131,-22,613,473,24,0
139852772,5760,-5376,4216,0.433659085,-0.901077021,0.071497444,-0.893371388,0.449318999,-17734,-8898,-6078,-313,-64,-50,601,473,27,0
139872772,8389,-3111,6388,0.424199423,-0.905568799,0.076719028,-0.891006524,0.4539905,-12376,-3882,-1868,-387,-56,-97,603,483,27,0
139892772,10069,-1460,6010,0.414693243,-0.909961271,0.078459096,-0.89571176,0.444635179,-9108,-368,-2408,-302,486,-123,595,487,7,0
139912772,10847,-329,2508,0.411514359,-0.911403277,0.085416923,-0.909236109,0.416280792,-7866,2236,-8686,35,1043,-358,599,497,33,0
139932772,15580,3317,16470,0.406736643,-0.913545458,0.095845753,-0.919821497,0.392337117,1076,10056,20560,105,1488,-707,623,501,50,0
139952772,20589,6875,4532,0.403545296,-0.914959668,0.102792537,-0.936059536,0.351841648,10796,17560,-2442,170,1607,-720,625,511,60,0
139972772,32764,6999,5798,0.411514359,-0.911403277,0.123601477,-0.94664926,0.322265695,-30644,18396,1034,727,978,-1014,617,535,83,0
139992772,26425,5074,2003,0.432085749,-0.901832526,0.137444546,-0.958322574,0.285688367,21908,14986,-5402,1182,1137,-577,613,553,114,0
140012776,19965,-6633,-1415,0.444635179,-0.89571176,0.158158067,-0.969872015,0.243615012,8660,-8212,-10946,676,1298,-460,615,579,159,0
140032776,13069,2910,4543,0.443071191,-0.89648643,0.158158067,-0.977415894,0.211324796,-5392,11388,2454,37,1492,-405,611,583,159,0
140052776,16572,-356,1862,0.43993917,-0.898027576,0.165047606,-0.985703469,0.16848938,1392,4864,-1706,4,1662,-414,625,571,187,0
140072776,20023,-1802,2385,0.438371147,-0.898794046,0.173648178,-0.991894443,0.127064609,8144,2222,694,21,1622,-453,623,601,239,0
140092776,19272,-2694,3102,0.43993917,-0.898027576,0.182235525,-0.995884399,0.09063258,6552,688,3420,101,1568,-372,619,589,254,0
140112776,17530,-3812,2224,0.441505853,-0.89725837,0.194234351,-0.998629535,0.052335956,3048,-1254,2864,154,1536,-377,613,599,296,0
140132776,16923,-3856,3107,0.446197813,-0.894934362,0.204496052,-0.999780683,0.02094242,1872,-1012,5756,261,1428,-348,631,603,317,0
140152776,15629,-5347,2851,0.447759088,-0.894154237,0.213030386,-0.999961923,-0.008726535,-662,-3764,6216,151,1358,-228,617,603,352,0
140172776,15321,-7211,2707,0.443071191,-0.89648643,0.224951054,-0.999328394,-0.036643709,-1184,-7198,6826,-120,1351,-185,619,605,339,0
140192776,15550,-5395,3206,0.433659085,-0.901077021,0.235142113,-0.998134798,-0.06104854,-574,-3122,8604,-350,1286,-248,615,599,367,0
140212776,16124,-3955,2126,0.424199423,-0.905568799,0.245307386,-0.996778878,-0.080198924,718,140,7018,-385,1109,-296,609,619,379,0
140232776,15968,-3233,1449,0.41310443,-0.910683661,0.252069358,-0.994880709,-0.101056297,548,1882,6304,-446,1155,-299,573,621,398,0
140252776,14820,-2542,1877,0.401947777,-0.915662593,0.258819045,-0.99317065,-0.116670737,-1612,3524,7692,-426,1005,-303,569,625,416,0
140272776,14214,-1513,1507,0.38912395,-0.921185406,0.26387305,-0.991444861,-0.130526192,-2706,5800,7358,-489,927,-281,577,641,401,0
140292776,14976,-69,772,0.372987783,-0.927836254,0.26387305,-0.989525789,-0.144356201,-1100,8786,6278,-598,924,-182,583,645,414,0
140312776,15244,1122,671,0.36325123,-0.931691228,0.260504509,-0.987413807,-0.158158067,-498,11114,6558,-347,926,-145,569,661,422,0
140332776,15083,286,1439,0.35836795,-0.933580426,0.257132793,-0.985109326,-0.1719291,-778,9288,8548,-156,841,-128,559,659,424,0
140352776,16772,-1287,1008,0.356737999,-0.934204474,0.257132793,-0.982935349,-0.183951351,2646,6026,8100,-8,820,-131,563,649,448,0
140372776,16505,-311,1851,0.355106962,-0.934825676,0.255445758,-0.980614659,-0.195946144,2202,7982,10206,14,809,-181,557,659,459,0
140392780,16763,383,2488,0.356737999,-0.934204474,0.253757945,-0.978508985,-0.206204185,2790,9330,11850,178,769,-222,535,659,490,0
140412780,17993,-578,2934,0.364876784,-0.931055816,0.252069358,-0.976296007,-0.216439614,5294,7312,13072,375,709,-231,531,649,471,0
140432780,18551,-3283,1499,0.377840787,-0.925870585,0.252069358,-0.973178873,-0.230049737,6476,1792,10586,639,755,-217,547,665,510,0
140452780,19609,-2402,509,0.38912395,-0.921185406,0.250380004,-0.969872015,-0.243615012,8688,3570,8974,545,675,-197,513,691,505,0
140472780,19914,-178,1231,0.392337117,-0.919821497,0.245307386,-0.96770917,-0.252069358,9372,7936,10748,218,681,-58,491,665,516,0
140492780,18300,-1829,-924,0.400349033,-0.91636273,0.238533458,-0.962217994,-0.272280247,6220,4338,6998,419,963,38,525,667,541,0
140512780,18807,-2523,-4366,0.411514359,-0.911403277,0.231747903,-0.9547608,-0.297374874,7374,2700,798,589,988,33,519,657,554,0
140532780,20263,-983,-4802,0.422618262,-0.906307787,0.223250116,-0.948323655,-0.317304656,10444,5548,558,562,760,37,499,659,584,0
140552780,22140,-1977,-2209,0.436801788,-0.899557779,0.214735327,-0.94664926,-0.322265695,14236,3254,6068,706,323,-10,495,659,603,0
140572780,24054,1180,-3372,0.452434709,-0.89179753,0.202787295,-0.946085359,-0.323917418,18008,9276,3780,789,98,10,483,651,603,0
140592780,22676,6164,1654,0.458649554,-0.888617233,0.182235525,-0.951056516,-0.309016994,15060,18752,13576,461,-260,228,485,643,610,0
140612780,22235,5048,5975,0.471011881,-0.882126866,0.158158067,-0.960293686,-0.278991106,13728,15624,21418,838,-851,424,509,637,622,0
140632780,21650,1776,8674,0.481753674,-0.87630668,0.135715572,-0.972775878,-0.231747903,12010,8232,25410,738,-1393,514,517,631,609,0
140652780,23130,-2230,13810,0.471011881,-0.882126866,0.128795597,-0.986572162,-0.163325962,14432,-186,-31950,-321,-1989,403,533,619,603,0
140672780,20087,3057,17726,0.436801788,-0.899557779,0.127064609,-0.994150964,-0.107999356,8082,10488,-25842,-1407,-1233,116,571,607,555,0
140692780,20282,779,4170,0.424199423,-0.905568799,0.130526192,-0.994702817,-0.102792537,8424,5996,11976,-533,196,-221,579,627,570,0
140712780,25053,-1913,-665,0.432085749,-0.901832526,0.127064609,-0.99505557,-0.09931975,17904,422,1992,383,-119,42,583,653,567,0
140732780,25454,-2997,-3812,0.452434709,-0.89179753,0.121869343,-0.9952274,-0.0975829,18660,-1968,-4432,981,-245,159,583,649,569,0
140752780,24202,-5311,-4925,0.48480962,-0.874619707,0.11493715,-0.996492859,-0.083677843,16052,-6922,-7230,1493,-969,315,599,659,586,0
140772784,19026,-6681,-4555,0.519519112,-0.85445883,0.106264071,-0.998806137,-0.04884977,5562,-10084,-7628,1678,-1809,579,637,631,563,0
140792784,16566,-3749,-2371,0.553391549,-0.832921241,0.095845753,-1,6.12E-17,574,-4450,-4812,1622,-2358,562,659,635,551,0
140812784,24774,-4809,-4934,0.570713568,-0.821149209,0.09063258,-0.99897057,0.045362988,17022,-6742,-11502,786,-2212,426,697,621,524,0
140832784,22757,-1824,-5623,0.575005252,-0.818149717,0.087155743,-0.996637387,0.081938509,13084,-746,-14164,216,-1942,144,737,607,521,0
140852784,19382,-92,-2503,0.570713568,-0.821149209,0.081938509,-0.99121554,0.13225639,6492,2578,-9524,-201,-2422,188,751,619,468,0
140872784,15589,1896,-2893,0.569279523,-0.822144041,0.069756474,-0.983254908,0.182235525,-838,6270,-12002,-124,-2483,287,757,619,391,0
140892784,15882,-1819,-3192,0.566406237,-0.824126189,0.06104854,-0.97236992,0.233445364,92,-1660,-14360,-234,-2699,397,771,625,368,0
140912784,16083,-4268,-3473,0.554844427,-0.831954122,0.055821505,-0.958819735,0.284015345,950,-6854,-16624,-711,-2702,297,781,605,310,0
140932784,13208,-3072,-4262,0.538770785,-0.842452397,0.047106451,-0.945518576,0.325568154,-4324,-4740,-19668,-905,-2477,362,803,615,256,0
140952784,9835,-712,-5602,0.519519112,-0.85445883,0.031410759,-0.934825676,0.355106962,-10656,-432,-23472,-1090,-2193,407,795,601,166,0
140972784,7036,370,-6353,0.503019947,-0.864274802,0.008726535,-0.927183855,0.374606593,-15948,1080,-25742,-1029,-1978,544,797,591,88,0
140992784,4458,1348,-4983,0.49848774,-0.866896749,-0.012217001,-0.921863152,0.387515586,-20924,2474,-23398,-459,-1638,545,805,573,72,0
141012784,3844,-4120,-3139,0.5,-0.866025404,0,-0.918446381,0.395545503,-22106,-8892,-19784,-15,-1239,359,797,563,-13,0
141032784,2140,-6296,-787,0.503019947,-0.864274802,0.024432178,-0.913545458,0.406736643,-25530,-12666,-15038,95,-788,126,801,557,20,0
141052784,2295,-5636,135,0.501510737,-0.865151421,0.054078813,-0.912120116,0.409923034,-25186,-10348,-13234,36,-384,-80,773,551,-42,0
141072784,4322,-4574,1164,0.495458668,-0.868631514,0.074978727,-0.912120116,0.409923034,-21108,-7288,-11126,-227,-146,-144,779,549,-24,0
141092784,5804,-3629,3345,0.48480962,-0.874619707,0.087155743,-0.910683661,0.41310443,-18136,-4754,-6674,-391,-42,-144,793,561,-48,0
141112784,7517,-3018,4296,0.478691858,-0.877982975,0.095845753,-0.911403277,0.411514359,-14702,-3096,-4704,-235,158,-134,789,565,-30,0
141132784,8343,-3065,4081,0.474088209,-0.880477354,0.109734311,-0.919135339,0.39394191,-13238,-2722,-4588,-33,800,-302,777,581,-48,0
141152784,11039,-3365,1575,0.472550765,-0.881303452,0.13225639,-0.938493023,0.345298199,-8316,-2530,-8192,169,1857,-684,789,589,-1,0
141172788,13912,5870,16068,0.464842046,-0.885393626,0.139173101,-0.942641491,0.333806859,-2804,16702,21802,19,1048,-761,807,603,19,0
141192788,27891,3401,9646,0.461748613,-0.887010833,0.152985836,-0.951594404,0.307356618,25058,12134,9440,230,1167,-862,819,633,49,0
141212788,32175,5688,11040,0.472550765,-0.881303452,0.16848938,-0.959805292,0.280666709,-32088,17228,13136,760,1063,-757,809,645,85,0
141232788,27430,-8648,-4839,0.483282383,-0.875464527,0.192521967,-0.971961001,0.235142113,23740,-11090,-17558,589,1312,-683,809,661,86,0
141252788,13863,2985,284,0.471011881,-0.882126866,0.194234351,-0.979924705,0.199367934,-3596,12726,-5950,-410,1326,-609,807,685,128,0
141272788,13726,4415,1581,0.457097927,-0.889416373,0.187381315,-0.986572162,0.163325962,-4122,15492,-2074,-585,1536,-427,817,685,130,0
141292788,18212,3343,542,0.441505853,-0.89725837,0.185666615,-0.992757342,0.120136839,4626,13170,-2836,-596,1716,-406,805,701,176,0
141312788,19596,3483,1094,0.435231099,-0.900318771,0.183951351,-0.996637387,0.081938509,7252,13380,-408,-251,1589,-337,803,711,193,0
141332788,18840,212,1146,0.43993917,-0.898027576,0.187381315,-0.99897057,0.045362988,5664,6802,902,260,1415,-334,793,699,243,0
141352788,17587,-3317,1705,0.450877541,-0.892585818,0.195946144,-0.999902524,0.01396218,3156,-154,3100,547,1243,-316,789,711,270,0
141372788,16482,-5750,2610,0.460199785,-0.887815385,0.207911691,-0.99992537,-0.012217001,1000,-4802,5802,473,1098,-252,797,715,296,0
141392788,15603,-7001,2889,0.463296035,-0.886203579,0.218143241,-0.999390827,-0.034899497,-678,-7042,7110,232,1063,-143,775,719,332,0
141412788,15226,-6351,3119,0.460199785,-0.887815385,0.226651307,-0.99853667,-0.054078813,-1314,-5382,8252,-77,1099,-165,803,717,325,0
141432788,15456,-5209,3342,0.452434709,-0.89179753,0.236838146,-0.997440783,-0.071497444,-722,-2720,9258,-245,1034,-216,779,727,367,0
141452788,15554,-3997,2605,0.443071191,-0.89648643,0.243615012,-0.996345296,-0.085416923,-406,18,8184,-371,908,-218,779,727,357,0
141472788,15799,-2829,843,0.430511097,-0.902585284,0.246999013,-0.994880709,-0.101056297,176,2558,5052,-504,902,-158,751,721,398,0
141492788,15067,-576,1206,0.417867074,-0.908508178,0.246999013,-0.993571856,-0.113203214,-1208,7188,6200,-515,827,-139,759,719,399,0
141512788,15530,127,1823,0.405141587,-0.914253955,0.245307386,-0.992757342,-0.120136839,-250,8568,7712,-448,679,-120,753,725,413,0
141532788,16435,-129,646,0.397147891,-0.917754626,0.243615012,-0.991444861,-0.130526192,1572,7956,5640,-281,685,-92,747,749,407,0
141552792,15566,285,1517,0.39394191,-0.919135339,0.240228042,-0.989776231,-0.142628934,-128,8694,7792,-89,723,-110,743,739,425,0
141572792,16314,-102,1713,0.392337117,-0.919821497,0.236838146,-0.988756381,-0.149535343,1374,7782,8450,-17,596,-86,733,747,433,0
141592792,16955,-725,722,0.38912395,-0.921185406,0.235142113,-0.986855716,-0.161603821,2686,6454,6770,-69,681,-111,733,751,452,0
141612792,16595,-94,396,0.390731128,-0.920504853,0.231747903,-0.984195608,-0.17708474,2050,7658,6656,104,878,-132,723,757,468,0
141632792,16887,-1493,1869,0.397147891,-0.917754626,0.231747903,-0.982612797,-0.185666615,2672,4752,9930,366,541,-159,731,749,494,0
141652792,19074,-2776,703,0.406736643,-0.913545458,0.231747903,-0.980614659,-0.195946144,7096,2160,7868,437,565,-176,729,761,494,0
141672792,17466,-4354,-636,0.419452082,-0.907777479,0.235142113,-0.975916762,-0.218143241,4032,-964,5860,629,960,-238,703,761,527,0
141692792,16701,-3873,-743,0.430511097,-0.902585284,0.236838146,-0.97154912,-0.236838146,2664,64,6242,490,846,-144,709,761,517,0
141712792,17304,-2133,-84,0.433659085,-0.901077021,0.235142113,-0.96814764,-0.250380004,4008,3554,8054,210,804,-37,691,753,552,0
141732792,18741,256,-1447,0.435231099,-0.900318771,0.226651307,-0.963630453,-0.267238376,6986,8210,5808,189,853,25,683,761,574,0
141752792,20159,1832,-686,0.444635179,-0.89571176,0.213030386,-0.959313975,-0.282341457,9882,10964,7866,484,775,132,679,753,577,0
141772792,22664,118,2060,0.460199785,-0.887815385,0.199367934,-0.958322574,-0.285688367,14856,7000,13654,899,428,108,673,753,608,0
141792792,25376,2408,-422,0.480223497,-0.877146164,0.185666615,-0.956813584,-0.290702194,20218,11188,8752,985,289,17,677,753,626,0
141812792,23306,7564,3429,0.489382452,-0.872069272,0.166768747,-0.959805292,-0.280666709,15934,21052,16262,609,-80,105,679,731,633,0
141832792,21453,7185,8960,0.496973961,-0.867765453,0.146083029,-0.96814764,-0.250380004,11868,19578,26552,509,-678,271,671,731,629,0
141852792,21933,2708,11127,0.495458668,-0.868631514,0.130526192,-0.97957525,-0.201077921,12338,9934,29410,163,-1279,391,705,721,603,0
141872792,24502,-1305,14289,0.475624209,-0.879648573,0.127064609,-0.9909832,-0.133986185,17004,1614,-31946,-780,-1932,303,737,727,564,0
141892792,19153,1537,15141,0.438371147,-0.898794046,0.130526192,-0.995884399,-0.09063258,6152,7508,-31592,-1546,-766,-85,731,723,524,0
141912792,23940,-2007,-261,0.438371147,-0.898794046,0.135715572,-0.996041065,-0.088894297,15682,492,2482,-36,5,-239,757,745,504,0
141932796,26783,-3041,-2197,0.452434709,-0.89179753,0.133986185,-0.996492859,-0.083677843,21324,-1684,-1672,671,-396,57,759,747,499,0
141952796,25346,-1726,-4710,0.478691858,-0.877982975,0.121869343,-0.996917334,-0.078459096,18390,640,-6924,1195,-484,322,749,725,511,0
141972796,21765,-4575,-5801,0.507538363,-0.86162916,0.120136839,-0.998134798,-0.06104854,11140,-5288,-9760,1354,-1169,171,749,725,521,0
141992796,18694,-6129,-4316,0.54024032,-0.841510782,0.111468932,-0.999742609,-0.022687334,4888,-8748,-8020,1551,-2012,517,761,703,481,0
142012796,19452,-1227,-2376,0.570713568,-0.821149209,0.09931975,-0.999450216,0.033155178,6384,888,-5878,1490,-2618,497,755,667,442,0
142032796,23750,-3966,-5140,0.58212297,-0.813100761,0.094108313,-0.997314477,0.073238197,15054,-4910,-12890,539,-2098,421,795,657,433,0
142052796,23851,-773,-5014,0.589196357,-0.807989884,0.088894297,-0.993767919,0.111468932,15376,1434,-13926,342,-2028,211,791,649,395,0
142072796,18546,1642,-1845,0.590605668,-0.806960312,0.078459096,-0.986285602,0.165047606,4982,6056,-9266,-24,-2540,234,771,629,355,0
142092796,15541,802,-3113,0.590605668,-0.806960312,0.069756474,-0.976672278,0.214735327,-704,4022,-13574,-3,-2601,288,787,619,299,0
142112796,14487,-3245,-3184,0.587785252,-0.809016994,0.064532308,-0.964095404,0.265556117,-2418,-4474,-15384,-242,-2652,347,773,593,237,0
142132796,14753,-4620,-4013,0.579281172,-0.815127796,0.059306374,-0.950515732,0.31067643,-1414,-7478,-18604,-594,-2588,387,779,605,209,0
142152796,11488,-2989,-4837,0.563526049,-0.826098294,0.05059294,-0.937888935,0.346935652,-7478,-4506,-21568,-924,-2365,398,787,553,129,0
142172796,7417,-1636,-5575,0.547563223,-0.836764313,0.034899497,-0.928485827,0.371367836,-15246,-2264,-24006,-1066,-2083,486,771,565,118,0
142192796,6300,-63,-5656,0.53139858,-0.847121921,0.012217001,-0.921863152,0.387515586,-17250,310,-24726,-1023,-1778,576,763,513,57,0
142212796,5003,-710,-4879,0.525471651,-0.850811109,0,-0.919135339,0.39394191,-19738,-1470,-23398,-522,-1421,467,775,497,57,0
142232796,4230,-4469,-2499,0.526955795,-0.849892693,0.015707317,-0.914959668,0.403545296,-21262,-9052,-18676,17,-1181,262,749,481,15,0
142252796,2238,-5267,540,0.53139858,-0.847121921,0.043619387,-0.908508178,0.417867074,-25220,-9970,-12626,191,-794,73,757,485,-34,0
142272796,3550,-4284,1819,0.53139858,-0.847121921,0.068015291,-0.904827052,0.425779292,-22470,-6966,-10248,161,-404,-117,737,481,-33,0
142292796,4968,-3022,2230,0.528438335,-0.848971688,0.085416923,-0.902585284,0.430511097,-19502,-3638,-9590,-45,-256,-172,735,487,-64,0
142312800,6170,-1733,4683,0.523985906,-0.851726934,0.09063258,-0.898027576,0.43993917,-17018,-602,-4760,-132,-178,-107,741,491,-52,0
142332800,8273,-867,5406,0.522498565,-0.852640164,0.094108313,-0.898027576,0.43993917,-12766,1370,-3364,19,113,-110,737,489,-43,0
142352800,8899,-1353,4252,0.522498565,-0.852640164,0.09931975,-0.904827052,0.425779292,-11654,574,-5336,89,564,-175,729,509,-40,0
142372800,10016,-3407,3526,0.521009632,-0.853550797,0.116670737,-0.91636273,0.400349033,-9740,-3146,-5986,196,1028,-389,741,505,-19,0
142392800,15503,2311,23202,0.512042865,-0.858959897,0.123601477,-0.918446381,0.395545503,992,8858,-31416,-127,903,-534,735,545,25,0
142412800,20212,496,10035,0.503019947,-0.864274802,0.130526192,-0.932953535,0.359996808,10136,5468,8552,-159,1685,-593,745,523,44,0
142432800,32764,9812,12047,0.487859659,-0.872922077,0.13225639,-0.943222658,0.332161132,-30532,24400,13372,-426,1214,-719,753,569,26,0
142452800,28441,138,-4523,0.501510737,-0.865151421,0.159881188,-0.958322574,0.285688367,26088,5700,-18636,951,1334,-1016,753,569,89,0
142472800,13569,-1249,473,0.518027009,-0.85536426,0.182235525,-0.968583161,0.248689887,-3938,3610,-7216,943,1123,-777,751,589,114,0
142492800,10186,1267,2724,0.516533329,-0.856267085,0.190808995,-0.977415894,0.211324796,-10952,9086,-1252,121,1580,-621,749,613,154,0
142512800,17783,-1670,1050,0.503019947,-0.864274802,0.194234351,-0.985407898,0.170209499,4002,3150,-3406,-522,1681,-360,753,611,178,0
142532800,21842,1497,-146,0.487859659,-0.872922077,0.195946144,-0.992114701,0.125333234,11948,9670,-4386,-646,1759,-417,743,633,193,0
142552800,18623,1438,1660,0.480223497,-0.877146164,0.194234351,-0.996194698,0.087155743,5368,9540,592,-309,1616,-296,745,627,212,0
142572800,17724,-1184,1605,0.481753674,-0.87630668,0.201077921,-0.998806137,0.04884977,3508,4360,1710,121,1503,-361,743,645,231,0
142592800,17647,-4299,2309,0.490903754,-0.871213811,0.213030386,-0.999815712,0.019197442,3386,-1596,4158,435,1239,-458,735,645,268,0
142612800,16123,-6941,3064,0.495458668,-0.868631514,0.22835087,-0.999975631,-0.00698126,414,-6556,6534,323,1126,-346,733,645,328,0
142632800,15329,-7357,2875,0.49242356,-0.870355696,0.241921896,-0.99955986,-0.029666244,-1052,-6962,6906,-101,1169,-282,723,649,320,0
142652800,15008,-6029,3064,0.481753674,-0.87630668,0.253757945,-0.998806137,-0.04884977,-1534,-3804,7936,-398,1144,-332,725,665,351,0
142672800,16141,-3179,2170,0.469471563,-0.882947593,0.26387305,-0.997684279,-0.068015291,898,2366,6706,-500,1109,-375,719,659,374,0
142692804,15213,-1900,1538,0.458649554,-0.888617233,0.267238376,-0.996345296,-0.085416923,-858,5112,5966,-385,1000,-250,701,677,368,0
142712804,15141,-1161,2099,0.450877541,-0.892585818,0.268919821,-0.9952274,-0.0975829,-930,6686,7524,-268,832,-229,723,675,375,0
142732804,15254,-178,1859,0.441505853,-0.89725837,0.270600446,-0.993960955,-0.109734311,-628,8754,7428,-386,864,-274,715,669,394,0
142752804,15406,1420,1418,0.430511097,-0.902585284,0.267238376,-0.992114701,-0.125333234,-258,11984,6994,-395,940,-255,681,695,420,0
142772804,15189,43,1588,0.428935133,-0.903335293,0.267238376,-0.990509463,-0.137444546,-666,9100,7738,-22,756,-213,681,711,415,0
142792804,15340,-641,484,0.430511097,-0.902585284,0.265556117,-0.988228381,-0.152985836,-320,7646,5972,143,789,-188,669,705,427,0
142812804,15493,-917,1990,0.433659085,-0.901077021,0.26387305,-0.986572162,-0.163325962,42,7026,9422,203,698,-175,663,685,451,0
142832804,16687,-1611,1454,0.435231099,-0.900318771,0.26387305,-0.985109326,-0.1719291,2466,5610,8600,117,608,-181,679,715,448,0
142852804,16785,-217,-202,0.436801788,-0.899557779,0.262189179,-0.981958713,-0.189095443,2748,8396,5722,125,811,-176,659,715,465,0
142872804,16728,74,422,0.444635179,-0.89571176,0.257132793,-0.979222811,-0.202787295,2704,8838,7498,370,756,-153,653,711,484,0
142892804,17164,-1503,665,0.457097927,-0.889416373,0.253757945,-0.977045574,-0.213030386,3600,5502,8304,614,489,-166,631,735,500,0
142912804,17404,-3115,405,0.471011881,-0.882126866,0.252069358,-0.973975967,-0.226651307,4138,2132,8208,741,619,-135,617,729,529,0
142932804,17001,-5232,-1036,0.49242356,-0.870355696,0.252069358,-0.96944535,-0.245307386,3446,-2196,5900,993,750,-164,631,725,523,0
142952804,18484,-4508,86,0.506033764,-0.862513669,0.252069358,-0.966823389,-0.255445758,6524,-738,8530,692,526,-93,623,699,567,0
142972804,20032,-1841,275,0.510542918,-0.859852272,0.246999013,-0.965016494,-0.262189179,9680,4564,9134,284,508,-2,625,713,585,0
142992804,18618,-728,-1860,0.518027009,-0.85536426,0.240228042,-0.959313975,-0.282341457,6964,6618,5426,433,928,-32,605,705,592,0
143012804,19389,-1110,-4075,0.532876276,-0.846193166,0.230049737,-0.952129393,-0.305695305,8628,5534,1650,721,859,-8,597,703,627,0
143032804,21695,-1293,-1806,0.549022818,-0.835807361,0.219846204,-0.949425478,-0.313992456,13300,4824,6616,898,432,-14,587,701,636,0
143052804,23955,-1876,-2745,0.570713568,-0.821149209,0.211324796,-0.947210278,-0.320612991,17820,3316,4974,1116,290,-77,601,693,650,0
143072808,22976,2745,-458,0.586372357,-0.81004164,0.195946144,-0.947210278,-0.320612991,15814,12222,9630,923,114,12,577,691,674,0
143092808,21983,4142,2438,0.601815023,-0.79863551,0.175366726,-0.952661481,-0.304033061,13556,14410,15010,899,-430,160,579,671,687,0
143112808,21832,3638,6001,0.612907054,-0.790155012,0.156434465,-0.962217994,-0.272280247,12846,12698,21270,818,-858,283,581,663,678,0
143132808,23034,1921,11462,0.6142852,-0.789084085,0.140901232,-0.976672278,-0.214735327,14684,8668,30526,264,-1645,388,615,645,662,0
143152808,24994,-233,19913,0.584957675,-0.811063819,0.133986185,-0.992331938,-0.123601477,17962,4048,-20920,-1215,-2736,454,647,633,633,0
143172808,18209,3019,19667,0.538770785,-0.842452397,0.135715572,-0.997440783,-0.071497444,4226,10700,-23066,-2116,-914,-9,655,645,578,0
143192808,23513,-136,2167,0.53139858,-0.847121921,0.140901232,-0.997052752,-0.076719028,14834,4502,6994,-336,400,-311,659,657,611,0
143212808,28290,-4059,-1320,0.544639035,-0.838670568,0.135715572,-0.997052752,-0.076719028,24334,-3624,-124,656,-110,181,655,665,598,0
143232808,27071,-4564,-5171,0.570713568,-0.821149209,0.130526192,-0.997185134,-0.074978727,21848,-4852,-7986,1295,-416,218,663,637,645,0
143252808,23034,-8135,-6899,0.603207988,-0.797583929,0.128795597,-0.998440764,-0.055821505,13686,-12206,-12180,1584,-1319,249,673,621,628,0
143272808,16816,-5730,-4780,0.641449632,-0.767165152,0.120136839,-0.999961923,-0.008726535,1136,-7686,-9476,1984,-2516,591,701,589,610,0
143292808,23085,-5683,-1903,0.665230355,-0.746638182,0.113203214,-0.998440764,0.055821505,13708,-7720,-5684,1230,-2940,468,757,553,579,0
143312808,24481,-4331,-7600,0.671720589,-0.740804596,0.107999356,-0.99505557,0.09931975,16646,-5152,-18732,290,-2271,389,755,557,545,0
143332808,21582,1288,-4281,0.662620048,-0.748955721,0.095845753,-0.988493887,0.15126082,11038,5920,-13736,-489,-2531,269,789,541,486,0
143352808,15736,3337,-3387,0.662620048,-0.748955721,0.083677843,-0.979222811,0.202787295,-364,9694,-13682,-89,-2638,250,805,531,460,0
143372808,15083,-2560,-4092,0.663926213,-0.74779809,0.076719028,-0.96770917,0.252069358,-1296,-2638,-16828,-47,-2731,369,811,511,380,0
143392808,15083,-5540,-4136,0.656059029,-0.75470958,0.073238197,-0.952129393,0.305695305,-806,-8938,-18642,-584,-2841,423,807,499,307,0
143412808,13005,-4757,-4635,0.63742399,-0.770513243,0.064532308,-0.937281989,0.348572047,-4432,-7658,-21156,-1128,-2590,367,815,477,267,0
143432808,9612,-2969,-6670,0.619779032,-0.784776371,0.05059294,-0.925870585,0.377840787,-10760,-4482,-26388,-1226,-2264,442,817,461,191,0
143452808,5494,292,-8073,0.601815023,-0.79863551,0.026176948,-0.917754626,0.397147891,-18678,1476,-29946,-1240,-1987,546,801,461,160,0
143472812,3682,-86,-7289,0.587785252,-0.809016994,0.003490651,-0.913545458,0.406736643,-22158,-48,-28702,-995,-1625,582,797,419,114,0
143492812,3408,-1374,-5082,0.584957675,-0.811063819,-0.001745328,-0.912834177,0.40833046,-22684,-3034,-24310,-315,-1246,462,789,409,90,0
143512812,1342,-5667,-1863,0.583541211,-0.812083527,0.017452406,-0.910683661,0.41310443,-26978,-11624,-17520,-119,-696,276,791,383,42,0
143532812,1704,-5433,-880,0.58212297,-0.813100761,0.043619387,-0.912120116,0.409923034,-26334,-10294,-15352,-70,-200,38,775,373,45,0
143552812,4074,-3959,456,0.580702956,-0.814115518,0.0662739,-0.914959668,0.403545296,-21668,-6370,-12436,-31,-40,-81,783,387,63,0
143572812,5541,-2910,3193,0.577857624,-0.81613759,0.078459096,-0.914959668,0.403545296,-18822,-3584,-6664,-111,87,-86,797,385,39,0
143592812,6600,-2582,3881,0.575005252,-0.818149717,0.09063258,-0.918446381,0.395545503,-16776,-2392,-5016,31,432,-222,797,389,58,0
143612812,7974,-3831,931,0.576432316,-0.817144898,0.113203214,-0.934204474,0.356737999,-14380,-4250,-9900,244,1417,-419,815,387,68,0
143632812,16626,3767,21774,0.572145873,-0.820151876,0.123601477,-0.942057453,0.33545157,2530,11854,-32342,156,1514,-685,801,407,88,0
143652812,20486,66,4370,0.576432316,-0.817144898,0.144356201,-0.955793015,0.294040325,10082,5024,-826,510,1599,-856,803,437,120,0
143672812,32764,5392,13718,0.575005252,-0.818149717,0.154710386,-0.963630453,0.267238376,-31122,16178,18960,169,1262,-758,815,465,176,0
143692812,31133,3494,-1501,0.580702956,-0.814115518,0.163325962,-0.975534544,0.219846204,30892,12618,-10286,435,1592,-536,821,471,186,0
143712812,18019,-3682,-2735,0.586372357,-0.81004164,0.180519145,-0.983885038,0.178802215,4458,-1470,-11512,324,1190,-567,823,471,228,0
143732812,10215,4537,3797,0.580702956,-0.814115518,0.173648178,-0.988756381,0.149535343,-11326,15328,3006,-87,1439,-400,823,489,238,0
143752812,15066,1604,126,0.575005252,-0.818149717,0.175366726,-0.994337944,0.106264071,-1808,9226,-3218,-288,1684,-357,811,495,280,0
143772812,20457,1675,1426,0.569279523,-0.822144041,0.175366726,-0.997801468,0.0662739,8860,9364,762,-185,1626,-307,819,513,322,0
143792812,21191,-3441,228,0.577857624,-0.81613759,0.183951351,-0.999610115,0.027921639,10290,-820,-402,420,1452,-314,815,513,355,0
143812812,18296,-5819,1750,0.587785252,-0.809016994,0.195946144,-0.999986292,-0.005235964,4550,-5270,3778,552,1281,-347,813,517,389,0
143832812,16929,-7735,2450,0.596224875,-0.802817475,0.211324796,-0.999450216,-0.033155178,1924,-8712,6142,433,1212,-328,811,503,407,0
143852816,15665,-8704,2667,0.594822787,-0.803856861,0.226651307,-0.998239828,-0.059306374,-460,-10228,7448,45,1265,-235,807,527,453,0
143872816,15432,-7282,2767,0.584957675,-0.811063819,0.240228042,-0.996492859,-0.083677843,-744,-6878,8470,-433,1364,-226,783,521,469,0
143892816,16260,-4672,1984,0.570713568,-0.821149209,0.250380004,-0.994521895,-0.104528463,1106,-1160,7548,-623,1252,-286,787,517,468,0
143912816,15465,-3036,1552,0.557745109,-0.830012285,0.255445758,-0.992546152,-0.121869343,-344,2402,7180,-602,1041,-218,755,541,501,0
143932816,15439,-2704,352,0.544639035,-0.838670568,0.262189179,-0.990509463,-0.137444546,-272,3294,5194,-602,938,-242,749,559,497,0
143952816,15156,-245,618,0.528438335,-0.848971688,0.26387305,-0.989015863,-0.147809411,-710,8444,6122,-695,871,-259,753,575,511,0
143972816,14970,1515,816,0.512042865,-0.858959897,0.26387305,-0.987136265,-0.159881188,-996,12050,6882,-707,868,-253,739,569,520,0
143992816,15096,1507,759,0.501510737,-0.865151421,0.260504509,-0.985109326,-0.1719291,-700,11926,7178,-423,871,-181,737,583,508,0
144012816,15311,-27,1505,0.496973961,-0.867765453,0.258819045,-0.983254908,-0.182235525,-240,8704,9036,-113,737,-165,719,597,527,0
144032816,16822,-886,1034,0.496973961,-0.867765453,0.258819045,-0.981292664,-0.192521967,2822,6926,8380,2,675,-184,713,577,576,0
144052816,16805,626,2199,0.495458668,-0.868631514,0.255445758,-0.979924705,-0.199367934,2840,9906,11024,13,670,-149,717,623,588,0
144072816,16456,612,3134,0.493941867,-0.86949493,0.252069358,-0.978508985,-0.206204185,2170,9768,13150,29,685,-164,687,603,587,0
144092816,17990,-1273,316,0.5,-0.866025404,0.250380004,-0.975149354,-0.221548498,5280,5850,7878,357,814,-173,687,611,612,0
144112816,18004,-1521,-737,0.510542918,-0.859852272,0.246999013,-0.970716482,-0.240228042,5424,5244,6354,520,877,-157,685,605,629,0
144132816,17987,-3178,-1416,0.523985906,-0.851726934,0.245307386,-0.965472631,-0.260504509,5508,1776,5588,703,803,-136,647,607,654,0
144152816,16966,-4284,-1503,0.54024032,-0.841510782,0.243615012,-0.959313975,-0.282341457,3630,-584,6124,813,913,-74,639,611,679,0
144172816,17876,-4518,-1525,0.551936985,-0.833885822,0.240228042,-0.953716951,-0.3007058,5624,-1138,6696,589,877,-14,635,615,684,0
144192816,17910,-1574,-764,0.553391549,-0.832921241,0.235142113,-0.949972052,-0.312334919,5832,4694,8660,239,773,55,625,619,720,0
144212816,19110,486,-1909,0.554844427,-0.831954122,0.224951054,-0.944948912,-0.327217899,8330,8628,6796,164,820,62,631,587,712,0
144232820,20982,2387,-911,0.560638995,-0.828060335,0.211324796,-0.941470545,-0.337095258,12128,12056,9188,404,667,92,611,587,734,0
144252820,23140,-280,-850,0.575005252,-0.818149717,0.199367934,-0.939692621,-0.342020143,16394,6200,9506,841,372,39,601,593,736,0
144272820,24144,5342,-1033,0.586372357,-0.81004164,0.183951351,-0.939692621,-0.342020143,18332,17094,9160,643,215,48,595,579,765,0
144292820,21579,7270,3968,0.590605668,-0.806960312,0.163325962,-0.94664926,-0.322265695,12928,20350,18748,408,-346,212,591,585,768,0
144312820,21701,4690,7587,0.597625147,-0.801775644,0.142628934,-0.959313975,-0.282341457,12646,14376,24880,602,-1075,354,611,553,763,0
144332820,23332,1357,9026,0.597625147,-0.801775644,0.127064609,-0.974370065,-0.224951054,15278,7084,25930,256,-1780,396,621,541,737,0
144352820,25509,-37,14082,0.577857624,-0.81613759,0.120136839,-0.989272333,-0.146083029,19042,4008,-31990,-860,-2454,391,623,515,687,0
144372820,17625,6113,15889,0.538770785,-0.842452397,0.116670737,-0.994702817,-0.102792537,3112,16396,-29666,-1732,-679,59,669,537,631,0
144392820,22154,676,-2199,0.54024032,-0.841510782,0.118403968,-0.992757342,-0.120136839,12148,5384,-458,12,671,-181,663,555,672,0
144412820,28126,-4468,-4718,0.559192903,-0.829037573,0.113203214,-0.993372766,-0.11493715,24028,-5228,-5688,983,-379,153,667,561,679,0
144432820,25312,-4666,-5558,0.587785252,-0.809016994,0.104528463,-0.994521895,-0.104528463,18304,-5960,-7804,1448,-780,323,669,519,674,0
144452820,20858,-4146,-5703,0.619779032,-0.784776371,0.09931975,-0.996637387,-0.081938509,9294,-5120,-8896,1631,-1355,235,683,497,666,0
144472820,17399,-3342,-5316,0.656059029,-0.75470958,0.088894297,-0.99897057,-0.045362988,2248,-3858,-9356,1899,-2005,467,681,471,638,0
144492820,20843,-3718,-2536,0.685818353,-0.727772758,0.080198924,-0.999961923,0.008726535,9080,-4868,-5432,1630,-2522,449,711,459,614,0
144512820,24456,-4828,-6251,0.699663341,-0.71447268,0.076719028,-0.99853667,0.054078813,16368,-7218,-14486,756,-2249,341,709,427,574,0
144532820,23224,-2607,-4149,0.690882411,-0.722967146,0.073238197,-0.994337944,0.106264071,14024,-2746,-11734,-62,-2205,142,721,437,540,0
144552820,17395,2653,-3167,0.683273774,-0.730162277,0.06279052,-0.985996037,0.166768747,2612,7496,-11758,-83,-2596,344,747,423,494,0
144572820,14579,-622,-3868,0.68199836,-0.731353702,0.054078813,-0.975916762,0.218143241,-2634,566,-15228,-108,-2731,354,767,425,435,0
144592820,15088,-3345,-3284,0.67687597,-0.736097087,0.04884977,-0.962691746,0.270600446,-1194,-5204,-15780,-403,-2797,342,745,427,408,0
144612820,14251,-3089,-4179,0.663926213,-0.74779809,0.043619387,-0.947210278,0.320612991,-2320,-4892,-19304,-799,-2818,260,765,425,343,0
144632824,10319,-2070,-5292,0.649448048,-0.760405966,0.033155178,-0.934204474,0.356737999,-9694,-3164,-22844,-918,-2427,321,765,409,325,0
144652824,7001,-865,-7118,0.633380873,-0.77384021,0.015707317,-0.925209718,0.37945616,-15952,-1268,-27426,-1118,-2142,466,753,391,247,0
144672824,4084,1038,-6352,0.62114778,-0.783693457,-0.00698126,-0.919821497,0.392337117,-21566,1962,-26374,-862,-1779,544,767,381,205,0
144692824,2756,-1225,-4231,0.618408395,-0.785856893,-0.012217001,-0.917754626,0.397147891,-24152,-3102,-22256,-323,-1366,447,767,365,163,0
144712824,2632,-6186,-2243,0.618408395,-0.785856893,0.00698126,-0.914253955,0.405141587,-24476,-12966,-18098,-48,-926,240,753,361,150,0
144732824,1749,-5803,769,0.617035875,-0.786935022,0.033155178,-0.908508178,0.417867074,-26226,-11378,-12102,-28,-593,49,765,367,146,0
144752824,4022,-4721,2052,0.612907054,-0.790155012,0.055821505,-0.906307787,0.422618262,-21594,-8240,-9676,-173,-247,-133,763,363,130,0
144772824,6025,-3844,3370,0.603207988,-0.797583929,0.068015291,-0.904827052,0.425779292,-17524,-5818,-7106,-425,-99,-162,769,351,138,0
144792824,7885,-2451,5768,0.592013179,-0.805928282,0.071497444,-0.901832526,0.432085749,-13748,-2684,-2380,-514,-41,-114,767,355,138,0
144812824,8979,-1059,4972,0.583541211,-0.812083527,0.074978727,-0.906307787,0.422618262,-11650,318,-3738,-300,519,-172,761,365,121,0
144832824,10194,-901,1671,0.577857624,-0.81613759,0.083677843,-0.921863152,0.387515586,-9588,984,-9444,-126,1262,-453,761,369,139,0
144852824,15236,4557,18946,0.566406237,-0.824126189,0.094108313,-0.929132572,0.369746757,62,12482,26324,-166,1320,-805,767,383,207,0
144872824,20701,4118,4623,0.562083378,-0.827080574,0.106264071,-0.940880769,0.33873792,10856,12040,-1808,85,1242,-858,765,409,192,0
144892824,32764,11547,7782,0.557745109,-0.830012285,0.111468932,-0.951056516,0.309016994,-30856,27208,5524,58,1154,-730,761,421,219,0
144912824,29884,-3690,-5548,0.579281172,-0.815127796,0.137444546,-0.964557418,0.26387305,28628,-2864,-20006,1279,1182,-644,763,433,258,0
144932824,14884,-2191,-390,0.587785252,-0.809016994,0.158158067,-0.973578903,0.22835087,-1612,812,-8366,545,1062,-705,779,445,276,0
144952824,10666,3610,3528,0.579281172,-0.815127796,0.154710386,-0.980271175,0.19765734,-10288,12752,842,-230,1453,-453,757,471,291,0
144972824,19500,926,494,0.569279523,-0.822144041,0.156434465,-0.988228381,0.152985836,7152,7232,-4054,-413,1682,-398,745,465,334,0
144992824,21011,2734,1194,0.566406237,-0.824126189,0.159881188,-0.993571856,0.113203214,10020,11018,-1262,-112,1592,-440,753,463,368,0
145012828,18892,-2529,1497,0.576432316,-0.817144898,0.170209499,-0.997052752,0.076719028,5686,582,592,544,1382,-376,749,487,401,0
145032828,17451,-6034,2281,0.586372357,-0.81004164,0.187381315,-0.999048222,0.043619387,2814,-6060,3252,570,1242,-405,739,497,413,0
145052828,17508,-8912,2754,0.594822787,-0.803856861,0.204496052,-0.999847695,0.017452406,3002,-11330,5114,454,1127,-386,737,507,439,0
145072828,16241,-9902,2600,0.592013179,-0.805928282,0.221548498,-0.999961923,-0.008726535,570,-12832,5668,-90,1227,-247,721,507,463,0
145092828,15299,-7556,2949,0.577857624,-0.81613759,0.235142113,-0.999450216,-0.033155178,-1160,-7562,7192,-608,1329,-288,715,499,491,0
145112828,16046,-2407,2874,0.556295616,-0.830984469,0.245307386,-0.998440764,-0.055821505,522,3334,7794,-908,1404,-406,699,517,495,0
145132828,16044,973,1307,0.54024032,-0.841510782,0.245307386,-0.997052752,-0.076719028,624,10304,5250,-756,1210,-285,709,531,505,0
145152828,15283,-171,1075,0.528438335,-0.848971688,0.246999013,-0.995396198,-0.095845753,-846,7980,5390,-466,1061,-235,687,547,518,0
145172828,14856,-1463,1025,0.522498565,-0.852640164,0.250380004,-0.993767919,-0.111468932,-1632,5426,5786,-278,880,-250,687,539,543,0
145192828,14933,-1297,744,0.516533329,-0.856267085,0.255445758,-0.991894443,-0.127064609,-1368,5940,5692,-238,850,-343,681,563,558,0
145212828,14863,-790,1164,0.510542918,-0.859852272,0.258819045,-0.990268069,-0.139173101,-1392,7146,6962,-210,797,-379,657,541,582,0
145232828,15220,-261,1537,0.507538363,-0.86162916,0.260504509,-0.988493887,-0.15126082,-588,8296,8130,-81,794,-312,659,571,581,0
145252828,15835,-1019,675,0.506033764,-0.862513669,0.262189179,-0.986572162,-0.163325962,700,6782,6726,-31,696,-246,659,571,581,0
145272828,15804,-974,800,0.506033764,-0.862513669,0.262189179,-0.984195608,-0.17708474,708,6852,7394,45,743,-177,649,573,604,0
145292828,16218,-1072,876,0.506033764,-0.862513669,0.260504509,-0.982287251,-0.187381315,1596,6610,7896,56,684,-148,631,591,618,0
145312828,16748,-675,611,0.506033764,-0.862513669,0.258819045,-0.980271175,-0.19765734,2714,7352,7708,59,688,-137,623,593,630,0
145332828,16893,-1463,87,0.513541252,-0.858064906,0.255445758,-0.976672278,-0.214735327,3078,5656,7158,384,787,-142,617,581,632,0
145352828,16974,-2468,337,0.526955795,-0.849892693,0.253757945,-0.973578903,-0.22835087,3322,3528,8152,695,683,-166,611,579,663,0
145372828,18518,-1667,2540,0.538770785,-0.842452397,0.250380004,-0.97236992,-0.233445364,6452,5050,12792,627,409,-139,607,579,662,0
145392832,19469,-1790,2876,0.546101961,-0.837718717,0.248689887,-0.971961001,-0.235142113,8354,4708,13564,447,420,-122,587,579,678,0
145412832,19319,-2784,192,0.554844427,-0.831954122,0.245307386,-0.969015731,-0.246999013,8098,2610,8480,482,669,-110,597,563,696,0
145432832,18985,-601,93,0.556295616,-0.830984469,0.238533458,-0.966376079,-0.257132793,7488,6858,8590,216,631,23,567,579,713,0
145452832,19227,-312,-640,0.559192903,-0.829037573,0.231747903,-0.964095404,-0.265556117,7972,7184,7368,216,541,71,563,563,704,0
145472832,20687,-512,-3280,0.563526049,-0.826098294,0.221548498,-0.960293686,-0.278991106,10918,6470,2454,317,641,104,559,559,739,0
145492832,21758,-1191,-2430,0.576432316,-0.817144898,0.211324796,-0.957319498,-0.289031797,13090,4742,4544,686,455,81,547,569,727,0
145512832,24947,-157,-3601,0.592013179,-0.805928282,0.201077921,-0.955793015,-0.294040325,19446,6476,2370,857,204,23,543,557,752,0
145532832,23251,3007,57,0.599023599,-0.800731371,0.185666615,-0.957822495,-0.28736052,15948,12446,9580,504,-100,117,549,547,755,0
145552832,21453,4136,5445,0.601815023,-0.79863551,0.16848938,-0.966376079,-0.257132793,12014,14138,19622,336,-744,311,559,547,769,0
145572832,21435,2863,11097,0.604599115,-0.796529918,0.147809411,-0.978867389,-0.204496052,11446,10830,29442,417,-1473,521,579,537,723,0
145592832,24308,818,16987,0.597625147,-0.801775644,0.13225639,-0.991444861,-0.130526192,16634,6098,-26606,-153,-2191,607,587,541,715,0
145612832,21224,1747,16903,0.566406237,-0.824126189,0.127064609,-0.997052752,-0.076719028,10226,7818,-28540,-1366,-1237,230,639,523,692,0
145632832,19315,3140,4292,0.551936985,-0.833885822,0.123601477,-0.996778878,-0.080198924,6394,10606,11484,-698,542,-91,639,519,648,0
145652832,25407,-2434,-1296,0.556295616,-0.830984469,0.118403968,-0.996917334,-0.078459096,18504,-936,6,301,-96,181,643,541,677,0
145672832,28113,-4963,-5235,0.579281172,-0.815127796,0.111468932,-0.996637387,-0.081938509,23878,-6304,-7850,1140,-142,328,659,523,672,0
145692832,22756,-5534,-4050,0.610145164,-0.792289643,0.111468932,-0.997314477,-0.073238197,13120,-7526,-5802,1517,-745,100,663,511,699,0
145712832,17645,-7455,-5468,0.64678978,-0.76266833,0.107999356,-0.998889875,-0.047106451,2798,-11610,-9594,1925,-1582,381,683,483,702,0
145732832,18812,-4278,-3137,0.683273774,-0.730162277,0.09931975,-0.999961923,0.008726535,5062,-5412,-6628,1941,-2665,533,687,469,664,0
145752832,24287,-5268,-2947,0.698415285,-0.715692734,0.092370587,-0.998026728,0.06279052,16076,-7588,-8048,848,-2546,465,745,407,604,0
145772836,22883,-3726,-5323,0.695912797,-0.718126298,0.088894297,-0.994702817,0.102792537,13402,-4586,-14248,-143,-2037,276,751,425,577,0
145792836,18957,3664,-1946,0.687087511,-0.726574671,0.076719028,-0.988228381,0.152985836,5738,10110,-9068,-536,-2374,170,787,411,536,0
145812836,14813,1486,-2673,0.687087511,-0.726574671,0.06279052,-0.97957525,0.201077921,-2272,5210,-12238,-83,-2499,390,771,409,442,0
145832836,16289,-4933,-3346,0.68199836,-0.731353702,0.055821505,-0.966823389,0.255445758,1064,-8212,-15358,-403,-2740,493,813,403,420,0
145852836,16556,-3612,-3691,0.667832555,-0.744311546,0.047106451,-0.952129393,0.305695305,2112,-5804,-17794,-918,-2784,366,827,383,348,0
145872836,13447,-2588,-4954,0.653420604,-0.756995056,0.036643709,-0.937888935,0.346935652,-3590,-4090,-21776,-913,-2518,365,819,375,314,0
145892836,8916,-1052,-7035,0.638767818,-0.769399555,0.02094242,-0.927836254,0.372987783,-12228,-1466,-27002,-984,-2204,436,829,367,239,0
145912836,4875,-318,-7291,0.627963058,-0.778243149,0.003490651,-0.919821497,0.392337117,-20004,-534,-28222,-842,-2019,508,813,355,208,0
145932836,3577,-1245,-6101,0.623879597,-0.781520472,-0.003490651,-0.91636273,0.400349033,-22466,-2778,-26104,-343,-1556,457,821,335,149,0
145952836,2483,-5070,-3824,0.625242656,-0.780430407,0.012217001,-0.914253955,0.405141587,-24694,-10442,-21452,-27,-1062,266,831,315,125,0
145972836,-154,-6340,-1188,0.627963058,-0.778243149,0.041875654,-0.909961271,0.414693243,-30022,-12206,-16034,151,-620,16,807,329,116,0
145992836,1612,-5780,-309,0.630675807,-0.776046407,0.076719028,-0.910683661,0.41310443,-26468,-9932,-14234,236,-205,-142,817,309,88,0
146012836,3875,-5616,1256,0.626603811,-0.779337965,0.102792537,-0.912834177,0.40833046,-21976,-8538,-10854,-46,81,-201,801,325,105,0
146032836,6207,-4322,2612,0.62114778,-0.783693457,0.120136839,-0.914253955,0.405141587,-17326,-5084,-7910,-183,178,-238,819,325,108,0
146052836,7537,-4123,2332,0.618408395,-0.785856893,0.140901232,-0.923879533,0.382683432,-14854,-3932,-7794,57,821,-389,821,327,105,0
146072836,12524,-3481,8291,0.62114778,-0.783693457,0.163325962,-0.936059536,0.351841648,-5254,-1666,5466,459,1554,-668,827,349,155,0
146092836,15825,796,2897,0.622514637,-0.782608157,0.180519145,-0.952661481,0.304033061,1076,7764,-4054,399,1831,-904,831,357,182,0
146112836,32317,295,5490,0.622514637,-0.782608157,0.202787295,-0.964095404,0.265556117,-31708,7464,2432,329,1470,-1083,843,385,200,0
146132836,31549,9189,14296,0.623879597,-0.781520472,0.207911691,-0.97154912,0.236838146,32070,25632,21272,326,1386,-643,841,413,254,0
146152840,28868,-5376,-5199,0.626603811,-0.779337965,0.219846204,-0.981958713,0.189095443,26506,-3466,-16752,195,1426,-521,833,419,262,0
146172840,15203,4506,-17,0.617035875,-0.786935022,0.218143241,-0.988756381,0.149535343,-1006,16658,-4902,-425,1532,-525,827,443,282,0
146192840,12743,4869,1355,0.610145164,-0.792289643,0.213030386,-0.993767919,0.111468932,-6128,17250,-816,-258,1592,-417,837,441,351,0
146212840,17465,2658,7,0.603207988,-0.797583929,0.211324796,-0.99756405,0.069756474,3156,12622,-2254,-352,1650,-396,827,467,361,0
146232840,20600,1636,730,0.601815023,-0.79863551,0.211324796,-0.99950656,0.031410759,9350,10506,522,-16,1579,-301,819,475,414,0
146252840,18726,-1998,1547,0.612907054,-0.790155012,0.216439614,-0.999993908,-0.003490651,5590,3214,3318,592,1318,-278,823,469,424,0
146272840,17823,-6553,2375,0.626603811,-0.779337965,0.226651307,-0.99950656,-0.031410759,3838,-5764,5944,783,1124,-276,823,469,448,0
146292840,16232,-7921,3334,0.63607822,-0.771624583,0.238533458,-0.998440764,-0.055821505,776,-8180,8678,506,1079,-243,801,453,464,0
146312840,15346,-8248,2787,0.63607822,-0.771624583,0.252069358,-0.996917334,-0.078459096,-842,-8460,8328,60,1197,-181,817,479,497,0
146332840,15237,-6741,2569,0.630675807,-0.776046407,0.260504509,-0.994880709,-0.101056297,-886,-5050,8570,-165,1175,-156,787,491,543,0
146352840,15071,-3733,3677,0.62114778,-0.783693457,0.267238376,-0.993571856,-0.113203214,-1058,1334,11272,-354,1000,-197,777,479,522,0
146372840,16325,-1811,1741,0.61152704,-0.791223533,0.268919821,-0.991894443,-0.127064609,1546,5362,7736,-441,952,-157,783,491,559,0
146392840,15896,-1003,896,0.601815023,-0.79863551,0.268919821,-0.990023658,-0.140901232,764,7022,6460,-399,905,-146,779,493,575,0
146412840,15625,-54,1416,0.594822787,-0.803856861,0.267238376,-0.988493887,-0.15126082,280,8910,7848,-259,736,-153,741,515,598,0
146432840,16053,-976,1404,0.590605668,-0.806960312,0.265556117,-0.986855716,-0.161603821,1166,6990,8146,-176,721,-146,757,517,614,0
146452840,15717,-1500,761,0.589196357,-0.807989884,0.265556117,-0.984807753,-0.173648178,544,5890,7218,9,728,-134,739,523,634,0
146472840,14650,-1513,1073,0.587785252,-0.809016994,0.267238376,-0.982935349,-0.183951351,-1506,5910,8198,-53,719,-213,727,515,638,0
146492840,16252,-1572,631,0.583541211,-0.812083527,0.265556117,-0.980955155,-0.194234351,1742,5730,7612,-119,701,-45,725,521,626,0
146512840,16448,-1757,-365,0.580702956,-0.814115518,0.26387305,-0.977783237,-0.209618563,2208,5300,6052,-51,823,-67,719,519,645,0
146532844,15554,-2243,-122,0.583541211,-0.812083527,0.262189179,-0.974761194,-0.223250116,516,4262,7034,212,780,-114,723,527,668,0
146552844,17165,-2217,914,0.586372357,-0.81004164,0.262189179,-0.972775878,-0.231747903,3816,4312,9416,181,585,-139,697,545,669,0
146572844,18953,-2156,174,0.592013179,-0.805928282,0.260504509,-0.969872015,-0.243615012,7476,4404,8288,317,689,-154,685,537,688,0
146592844,18280,-2435,-1836,0.601815023,-0.79863551,0.257132793,-0.964095404,-0.265556117,6254,3724,4870,533,911,-113,691,541,717,0
146612844,17571,-3061,-2045,0.61152704,-0.791223533,0.253757945,-0.957822495,-0.28736052,5000,2308,5158,586,941,-62,655,535,737,0
146632844,17991,-497,-181,0.615661475,-0.788010754,0.243615012,-0.9547608,-0.297374874,5918,7228,9306,325,651,120,661,533,751,0
146652844,20383,1992,-112,0.617035875,-0.786935022,0.230049737,-0.952661481,-0.304033061,10696,11870,9682,236,568,159,637,535,763,0
146672844,21383,2583,1456,0.622514637,-0.782608157,0.218143241,-0.952129393,-0.305695305,12656,12652,13014,404,465,48,657,525,760,0
146692844,24032,837,-150,0.634730513,-0.772733573,0.206204185,-0.951594404,-0.307356618,17846,8708,9800,720,220,7,615,519,787,0
146712844,23446,5215,304,0.641449632,-0.767165152,0.192521967,-0.953190668,-0.302369891,16562,17124,10600,456,74,54,649,523,811,0
146732844,21460,6571,4945,0.640109699,-0.768283524,0.173648178,-0.960293686,-0.278991106,12282,19294,19292,155,-509,216,651,503,786,0
146752844,21523,3029,7605,0.64412363,-0.764921401,0.156434465,-0.97113428,-0.238533458,11922,11440,23446,445,-1099,386,659,493,767,0
146772844,22162,-1328,7811,0.652098404,-0.758134336,0.142628934,-0.981292664,-0.192521967,12738,2138,22366,593,-1402,343,673,489,749,0
146792844,22408,-1675,14630,0.640109699,-0.768283524,0.139173101,-0.99074784,-0.135715572,12894,1304,-31206,-460,-1481,222,719,479,730,0
146812844,19071,-235,7481,0.62114778,-0.783693457,0.147809411,-0.992965508,-0.118403968,6160,4522,19260,-914,-65,-306,701,501,728,0
146832844,25118,533,-717,0.6142852,-0.789084085,0.146083029,-0.993960955,-0.109734311,18178,6056,2222,-322,-211,-63,711,505,721,0
146852844,25114,-1146,-2528,0.623879597,-0.781520472,0.133986185,-0.994880709,-0.101056297,18062,2214,-1730,523,-437,394,723,475,705,0
146872844,23061,-1045,-3567,0.64678978,-0.76266833,0.121869343,-0.996041065,-0.088894297,13842,1986,-4294,1237,-824,355,711,497,704,0
146892844,19901,-3920,-4166,0.673012514,-0.739631095,0.113203214,-0.99756405,-0.069756474,7412,-4192,-6166,1405,-1138,369,729,455,677,0
146912844,18833,-3846,-4464,0.700909264,-0.713250449,0.102792537,-0.999450216,-0.033155178,5164,-4354,-7986,1583,-1922,445,757,447,669,0
146932848,19568,-5167,-1216,0.726574671,-0.687087511,0.0975829,-0.999780683,0.02094242,6582,-7276,-3102,1492,-2448,490,785,427,658,0
146952848,22311,-2435,-6179,0.737277337,-0.675590208,0.092370587,-0.998440764,0.055821505,12146,-1824,-14454,627,-1947,273,777,405,628,0
146972848,22125,-279,-3284,0.740804596,-0.671720589,0.088894297,-0.9952274,0.0975829,11864,2456,-9906,172,-2002,116,801,423,575,0
146992848,17564,-802,-2660,0.743144825,-0.669130606,0.081938509,-0.989525789,0.144356201,2922,1172,-10280,139,-2389,267,833,413,520,0
147012848,15566,-1075,-3299,0.744311546,-0.667832555,0.073238197,-0.981292664,0.192521967,-816,304,-13180,-41,-2443,393,839,395,500,0
147032848,16056,-3685,-2588,0.739631095,-0.673012514,0.068015291,-0.970295726,0.241921896,508,-5274,-13382,-369,-2566,411,843,399,416,0
147052848,15119,-3480,-3043,0.727772758,-0.685818353,0.06104854,-0.957319498,0.289031797,-920,-5104,-15914,-842,-2548,314,861,401,380,0
147072848,13419,-2372,-4644,0.71447268,-0.699663341,0.047106451,-0.945518576,0.325568154,-3886,-3280,-20460,-942,-2310,450,869,399,313,0
147092848,8747,50,-5487,0.700909264,-0.713250449,0.027921639,-0.936059536,0.351841648,-12862,1048,-23168,-990,-2087,515,873,369,265,0
147112848,6194,743,-5673,0.693401828,-0.720551112,0.00698126,-0.930417568,0.366501227,-17738,1828,-24120,-646,-1753,561,879,357,236,0
147132848,4788,-1377,-5093,0.692143174,-0.721760228,0.001745328,-0.927836254,0.372987783,-20460,-2880,-23162,-230,-1374,450,885,343,196,0
147152848,2674,-3979,-3448,0.69465837,-0.7193398,0.015707317,-0.925870585,0.377840787,-24696,-8078,-19846,31,-1090,287,871,331,185,0
147172848,1433,-4689,-1813,0.697165103,-0.716910608,0.040131793,-0.924546034,0.381070376,-27224,-8918,-16436,119,-695,173,867,335,161,0
147192848,2373,-4602,956,0.698415285,-0.715692734,0.064532308,-0.921863152,0.387515586,-25378,-7888,-10746,61,-361,58,877,331,134,0
147212848,4288,-5924,2818,0.69465837,-0.7193398,0.087155743,-0.920504853,0.390731128,-21514,-9664,-6982,-122,-15,-82,879,333,147,0
147232848,6376,-5706,4601,0.688354576,-0.725374371,0.102792537,-0.919821497,0.392337117,-17298,-8516,-3372,-263,154,-119,869,333,147,0
147252848,8177,-4238,5327,0.684547106,-0.728968627,0.116670737,-0.921863152,0.387515586,-13690,-4914,-1766,-103,370,-238,871,331,146,0
147272848,8700,-3853,-495,0.683273774,-0.730162277,0.140901232,-0.940880769,0.33873792,-13000,-3324,-12240,146,1681,-621,889,341,169,0
147292848,13026,8350,19113,0.680720869,-0.732542899,0.149535343,-0.942057453,0.33545157,-4536,22040,27958,263,765,-783,907,373,212,0
147312852,26982,2343,10889,0.675590208,-0.737277337,0.166768747,-0.952661481,0.304033061,23250,10418,12114,149,1448,-1009,889,391,231,0
147332852,32764,10824,10688,0.684547106,-0.728968627,0.1719291,-0.962691746,0.270600446,-30954,27774,12760,687,1317,-591,891,405,244,0
147352852,25642,-8307,-6399,0.699663341,-0.71447268,0.19765734,-0.974370065,0.224951054,20126,-10240,-20388,941,1192,-624,891,423,284,0
147372852,12236,6484,2630,0.692143174,-0.721760228,0.190808995,-0.980955155,0.194234351,-6902,19852,-864,-274,1369,-520,897,443,314,0
147392852,13083,2028,1052,0.688354576,-0.725374371,0.187381315,-0.988228381,0.152985836,-5486,10564,-2844,-131,1551,-267,895,441,342,0
147412852,18829,1058,1739,0.684547106,-0.728968627,0.189095443,-0.993372766,0.11493715,5828,8580,-160,-169,1587,-335,887,449,391,0
147432852,21117,-1147,1505,0.687087511,-0.726574671,0.194234351,-0.997052752,0.076719028,10304,4226,582,199,1438,-313,869,451,412,0
147452852,18103,-4346,2077,0.697165103,-0.716910608,0.206204185,-0.999048222,0.043619387,4264,-1938,2870,633,1275,-391,875,463,457,0
147472852,16845,-6530,2950,0.707106781,-0.707106781,0.221548498,-0.999902524,0.01396218,1812,-5914,5614,605,1180,-406,851,487,478,0
147492852,16408,-8081,2826,0.712026046,-0.702153053,0.235142113,-0.999945169,-0.010471784,1040,-8606,6180,295,1118,-306,861,475,524,0
147512852,15366,-7510,2902,0.707106781,-0.707106781,0.248689887,-0.999390827,-0.034899497,-914,-7050,7164,-146,1264,-218,841,481,548,0
147532852,15019,-5838,2719,0.698415285,-0.715692734,0.258819045,-0.998239828,-0.059306374,-1450,-3250,7546,-460,1291,-266,833,477,559,0
147552852,15775,-2373,2138,0.687087511,-0.726574671,0.262189179,-0.996917334,-0.078459096,204,4000,6988,-485,1164,-201,817,511,601,0
147572852,15747,-1732,1678,0.679441304,-0.733729865,0.26387305,-0.9952274,-0.0975829,216,5332,6652,-371,1082,-119,807,511,565,0
147592852,15108,-441,2015,0.674302388,-0.738455341,0.262189179,-0.993571856,-0.113203214,-988,7944,7850,-219,956,-157,793,519,613,0
147612852,15361,-1415,1418,0.669130606,-0.743144825,0.26387305,-0.992114701,-0.125333234,-432,6004,7020,-156,780,-224,783,541,645,0
147632852,15324,-728,1266,0.665230355,-0.746638182,0.265556117,-0.990509463,-0.137444546,-418,7488,7100,-187,781,-279,781,523,624,0
147652852,14975,321,2226,0.662620048,-0.748955721,0.26387305,-0.989272333,-0.146083029,-1060,9584,9378,-52,714,-211,749,537,643,0
147672852,15483,-1336,1224,0.662620048,-0.748955721,0.26387305,-0.987688341,-0.156434465,-30,6166,7628,63,633,-171,765,537,651,0
147692856,15690,-1830,653,0.663926213,-0.74779809,0.262189179,-0.985407898,-0.170209499,442,5120,6908,97,771,-109,743,529,657,0
147712856,15502,-1530,846,0.663926213,-0.74779809,0.262189179,-0.982935349,-0.183951351,144,5690,7758,91,800,-111,745,553,679,0
147732856,15945,-1763,1894,0.662620048,-0.748955721,0.260504509,-0.981292664,-0.192521967,1084,5190,10154,25,641,-108,739,545,685,0
147752856,17280,-856,785,0.661311865,-0.75011107,0.258819045,-0.979222811,-0.202787295,3818,7014,8216,19,705,-150,735,549,716,0
147772856,17232,-974,254,0.66653247,-0.745476,0.257132793,-0.975916762,-0.218143241,3804,6708,7610,287,777,-181,721,563,729,0
147792856,17344,-1725,1257,0.674302388,-0.738455341,0.255445758,-0.973975967,-0.226651307,4082,5100,9958,485,561,-173,713,543,762,0
147812856,19072,-2085,1586,0.680720869,-0.732542899,0.253757945,-0.97236992,-0.233445364,7578,4284,10874,438,546,-122,711,549,761,0
147832856,18302,-2802,-1760,0.689619544,-0.724171861,0.250380004,-0.966823389,-0.255445758,6154,2752,4750,532,948,-131,685,553,778,0
147852856,17514,-3530,-1682,0.698415285,-0.715692734,0.248689887,-0.96174131,-0.273959219,4714,1162,5500,536,807,-51,673,551,814,0
147872856,18591,-2175,-1017,0.703394703,-0.710799474,0.241921896,-0.958322574,-0.285688367,6960,3752,7234,398,618,23,659,555,830,0
147892856,20249,-177,-1911,0.708339838,-0.705871571,0.233445364,-0.955278362,-0.29570805,10318,7534,5758,339,572,73,647,553,815,0
147912856,21638,-194,-1019,0.71447268,-0.699663341,0.223250116,-0.953190668,-0.302369891,13108,7152,7850,475,491,78,645,543,847,0
147932856,24836,321,-2381,0.724171861,-0.689619544,0.211324796,-0.951594404,-0.307356618,19466,7832,5270,640,304,44,633,527,854,0
147952856,23496,4310,143,0.727772758,-0.685818353,0.195946144,-0.953190668,-0.302369891,16684,15442,10272,391,61,128,649,539,877,0
147972856,21619,5037,4508,0.727772758,-0.685818353,0.17708474,-0.960293686,-0.278991106,12606,16276,18392,225,-543,337,649,525,840,0
147992856,21330,1921,7693,0.728968627,-0.684547106,0.158158067,-0.97154912,-0.236838146,11528,9290,23548,306,-1150,476,677,513,823,0
148012856,22880,-1765,10240,0.726574671,-0.687087511,0.147809411,-0.983571471,-0.180519145,14126,1398,26890,65,-1642,432,677,499,829,0
148032856,21542,11,14753,0.705871571,-0.708339838,0.144356201,-0.992757342,-0.120136839,11106,4878,-31482,-1028,-1564,245,717,507,794,0
148052856,18975,2655,8718,0.684547106,-0.728968627,0.146083029,-0.994702817,-0.102792537,5914,10352,21254,-1132,40,-187,747,531,773,0
148072860,23022,91,727,0.679441304,-0.733729865,0.144356201,-0.99505557,-0.09931975,13944,5096,4832,-192,63,-83,727,541,782,0
148092860,26890,-3192,-2827,0.690882411,-0.722967146,0.139173101,-0.994880709,-0.101056297,21626,-1780,-2366,620,-87,190,725,527,794,0
148112860,23943,-4058,-3421,0.709570737,-0.70463421,0.130526192,-0.995884399,-0.09063258,15652,-3808,-3864,1134,-599,299,725,543,774,0
148132860,21200,-6553,-4510,0.731353702,-0.68199836,0.123601477,-0.997684279,-0.068015291,10036,-9174,-6894,1284,-1308,426,755,503,771,0
148152860,18746,-3687,-4136,0.752414909,-0.65868946,0.107999356,-0.999657325,-0.026176948,5002,-3856,-7524,1275,-2089,706,773,487,755,0
148172860,22135,-4244,-336,0.771624583,-0.63607822,0.095845753,-0.999450216,0.033155178,11726,-5394,-1716,1205,-2638,671,847,453,712,0
148192860,23230,-2357,-6498,0.779337965,-0.626603811,0.088894297,-0.996917334,0.078459096,14022,-1792,-15834,502,-2361,397,841,435,689,0
148212860,21480,110,-3711,0.781520472,-0.623879597,0.083677843,-0.99317065,0.116670737,10642,3084,-11464,65,-1967,139,897,435,595,0
148232860,17663,1338,-2598,0.782608157,-0.622514637,0.076719028,-0.986855716,0.161603821,3198,5358,-10678,81,-2208,173,905,443,579,0
148252860,15922,-1140,-3566,0.782608157,-0.622514637,0.069756474,-0.978508985,0.206204185,-8,56,-14192,-78,-2403,280,939,427,523,0
148272860,17242,-3478,-3617,0.779337965,-0.626603811,0.064532308,-0.966376079,0.257132793,3016,-4932,-15984,-326,-2694,367,955,427,432,0
148292860,15284,-2832,-3489,0.770513243,-0.63742399,0.055821505,-0.952661481,0.304033061,-430,-3934,-17338,-701,-2626,380,953,431,395,0
148312860,12299,-3344,-5549,0.760405966,-0.649448048,0.04884977,-0.940288127,0.34037955,-5944,-5284,-22772,-805,-2333,351,973,421,283,0
148332860,8605,-2359,-7558,0.748955721,-0.662620048,0.036643709,-0.931055816,0.364876784,-12946,-3638,-27786,-903,-2147,385,971,393,231,0
148352860,4086,274,-6867,0.739631095,-0.673012514,0.019197442,-0.925209718,0.37945616,-21752,1242,-26968,-770,-1814,476,973,385,170,0
148372860,4020,-2199,-6256,0.737277337,-0.675590208,0.015707317,-0.923210217,0.384295323,-21828,-4106,-25862,-297,-1359,400,961,389,99,0
148392860,1653,-5106,-4148,0.737277337,-0.675590208,0.033155178,-0.921863152,0.387515586,-26616,-9844,-21516,-71,-982,264,965,359,92,0
148412860,270,-4956,-1726,0.737277337,-0.675590208,0.057564027,-0.921185406,0.38912395,-29464,-8930,-16426,-51,-489,154,949,363,67,0
148432860,2334,-4691,132,0.736097087,-0.67687597,0.080198924,-0.921863152,0.387515586,-25386,-7538,-12496,-119,-155,46,947,367,60,0
148452864,4066,-4082,1873,0.732542899,-0.680720869,0.09931975,-0.922538089,0.385906042,-21946,-5444,-8802,-142,45,-82,967,359,66,0
148472864,6903,-3181,3441,0.728968627,-0.684547106,0.111468932,-0.923879533,0.382683432,-16270,-2932,-5490,-72,207,-168,963,369,58,0
148492864,7027,-3390,3992,0.727772758,-0.685818353,0.130526192,-0.931055816,0.364876784,-16216,-2722,-3710,92,912,-409,983,361,46,0
148512864,13903,2337,16506,0.722967146,-0.690882411,0.142628934,-0.938493023,0.345298199,-2708,9620,22326,145,1423,-751,981,385,124,0
148532864,19472,693,-356,0.727772758,-0.685818353,0.165047606,-0.953190668,0.302369891,8320,7006,-10716,572,1390,-960,995,401,138,0
148552864,32764,3944,8099,0.728968627,-0.684547106,0.182235525,-0.964557418,0.26387305,-30970,14186,7750,403,1538,-972,987,451,193,0
148572864,32764,1545,4456,0.743144825,-0.669130606,0.194234351,-0.975149354,0.221548498,-31212,9738,1756,944,1447,-559,967,461,209,0
148592864,27014,-8568,-6830,0.745476,-0.66653247,0.211324796,-0.983885038,0.178802215,22648,-10276,-19716,228,1245,-488,975,447,239,0
148612864,10979,5120,3244,0.739631095,-0.673012514,0.202787295,-0.988756381,0.149535343,-9582,17500,1874,-273,1371,-390,997,465,270,0
148632864,12683,1956,1593,0.733729865,-0.679441304,0.201077921,-0.993767919,0.111468932,-6372,10868,-346,-258,1583,-321,987,471,306,0
148652864,18628,392,543,0.725374371,-0.688354576,0.201077921,-0.997440783,0.071497444,5378,7618,-1176,-431,1688,-268,977,489,352,0
148672864,20803,487,1314,0.724171861,-0.689619544,0.202787295,-0.999450216,0.033155178,9682,7868,1624,-11,1513,-307,981,505,388,0
148692864,18111,-2808,1616,0.732542899,-0.680720869,0.209618563,-1,6.12E-17,4306,1352,3340,537,1301,-321,973,513,446,0
148712864,17289,-5742,2121,0.740804596,-0.671720589,0.219846204,-0.99955986,-0.029666244,2728,-4314,5338,527,1208,-296,965,513,471,0
148732864,16450,-7137,2986,0.744311546,-0.667832555,0.233445364,-0.99853667,-0.054078813,1174,-6772,7940,242,1198,-273,951,507,485,0
148752864,15431,-7388,2542,0.743144825,-0.669130606,0.245307386,-0.997052752,-0.076719028,-726,-6924,7760,-33,1142,-188,943,523,516,0
148772864,15257,-5368,2228,0.736097087,-0.67687597,0.253757945,-0.9952274,-0.0975829,-904,-2472,7790,-342,1175,-207,923,517,539,0
148792864,15262,-2960,2404,0.724171861,-0.689619544,0.260504509,-0.993372766,-0.11493715,-730,2708,8714,-557,1142,-257,915,535,586,0
148812864,15995,-1435,1492,0.715692734,-0.698415285,0.260504509,-0.991671162,-0.128795597,824,5858,7312,-442,964,-108,903,529,573,0
148832864,15426,-1584,813,0.708339838,-0.705871571,0.262189179,-0.989776231,-0.142628934,-244,5588,6350,-319,840,-152,913,565,613,0
148852868,15289,-794,1140,0.702153053,-0.712026046,0.262189179,-0.988228381,-0.152985836,-438,7244,7360,-330,756,-198,901,545,624,0
148872868,15415,-14,295,0.695912797,-0.718126298,0.262189179,-0.985996037,-0.166768747,-112,8846,6012,-294,774,-215,891,575,639,0
148892868,15122,-772,175,0.693401828,-0.720551112,0.262189179,-0.983885038,-0.178802215,-634,7298,6178,-88,735,-218,881,567,648,0
148912868,15470,-2641,9,0.693401828,-0.720551112,0.26387305,-0.981958713,-0.189095443,108,3496,6176,49,608,-138,849,581,638,0
148932868,15755,-3229,-193,0.693401828,-0.720551112,0.267238376,-0.97957525,-0.201077921,776,2378,6158,-8,703,-145,855,577,680,0
148952868,15719,-1843,279,0.689619544,-0.724171861,0.267238376,-0.977415894,-0.211324796,816,5252,7460,-118,701,-138,851,585,695,0
148972868,16449,-988,828,0.687087511,-0.726574671,0.265556117,-0.975534544,-0.219846204,2334,6952,8834,-90,631,-103,849,591,697,0
148992868,17310,-98,166,0.687087511,-0.726574671,0.262189179,-0.972775878,-0.231747903,4130,8668,7866,70,741,-131,823,607,709,0
149012868,16980,-1567,556,0.693401828,-0.720551112,0.260504509,-0.970295726,-0.241921896,3524,5586,9036,414,642,-181,815,589,718,0
149032868,18471,-3106,1433,0.699663341,-0.71447268,0.260504509,-0.969015731,-0.246999013,6534,2420,10986,460,427,-159,805,601,752,0
149052868,18191,-2335,535,0.707106781,-0.707106781,0.257132793,-0.965925826,-0.258819045,6044,3910,9498,450,641,-112,807,607,752,0
149072868,17449,-3303,-1715,0.715692734,-0.698415285,0.255445758,-0.960779154,-0.277314653,4670,1842,5508,519,845,-78,791,591,797,0
149092868,18201,-2425,-1069,0.720551112,-0.693401828,0.248689887,-0.956813584,-0.290702194,6278,3462,7266,428,685,13,795,599,816,0
149112868,19777,-380,-638,0.724171861,-0.689619544,0.240228042,-0.955278362,-0.29570805,9450,7334,8352,288,476,100,787,579,810,0
149132868,20999,313,530,0.727772758,-0.685818353,0.22835087,-0.954240329,-0.299040792,11854,8382,10858,397,393,106,787,577,843,0
149152868,22721,-804,-506,0.738455341,-0.674302388,0.218143241,-0.952661481,-0.304033061,15248,5750,8934,709,371,54,783,559,833,0
149172868,23489,3459,-183,0.745476,-0.66653247,0.204496052,-0.952661481,-0.304033061,16732,13974,9634,565,242,43,767,567,845,0
149192868,21803,4458,1829,0.75011107,-0.661311865,0.189095443,-0.956813584,-0.290702194,13130,15472,13304,416,-261,147,775,559,842,0
149212868,22273,4582,4379,0.752414909,-0.65868946,0.16848938,-0.965016494,-0.262189179,13682,15032,17598,372,-759,375,787,555,840,0
149232872,21801,1288,7222,0.75011107,-0.661311865,0.149535343,-0.976296007,-0.216439614,12248,7706,21954,110,-1273,546,809,539,827,0
149252872,21956,-3041,12206,0.736097087,-0.67687597,0.146083029,-0.988493887,-0.15126082,12080,-1290,29962,-640,-1839,379,837,525,754,0
149272872,20300,-1308,14358,0.710799474,-0.703394703,0.149535343,-0.995561965,-0.094108313,8528,2360,32460,-1389,-1362,16,877,539,720,0
149292872,21820,-1507,6898,0.697165103,-0.716910608,0.152985836,-0.996917334,-0.078459096,11522,2106,16706,-667,-156,-154,885,553,685,0
149312872,25040,-2468,2311,0.697165103,-0.716910608,0.154710386,-0.99756405,-0.069756474,17928,196,7082,38,-146,-66,901,555,691,0
149332872,26849,-3424,-3038,0.70463421,-0.709570737,0.147809411,-0.99756405,-0.069756474,21494,-1958,-3794,480,-141,242,909,547,680,0
149352872,23701,-3717,-4008,0.7193398,-0.69465837,0.140901232,-0.998239828,-0.059306374,15122,-2812,-6196,806,-764,320,927,543,669,0
149372872,20420,-5394,-3853,0.733729865,-0.679441304,0.127064609,-0.999610115,-0.027921639,8430,-6706,-6902,915,-1582,696,935,519,635,0
149392872,18546,-1617,-2393,0.753563392,-0.657375246,0.109734311,-0.999742609,0.022687334,4606,400,-5618,1185,-2438,753,965,483,587,0
149412872,23737,-5792,-1737,0.770513243,-0.63742399,0.09931975,-0.997052752,0.076719028,15026,-8424,-6056,1020,-2513,656,1001,461,499,0
149432872,22805,200,-4966,0.781520472,-0.623879597,0.094108313,-0.992546152,0.121869343,13344,3588,-14186,701,-2372,244,1027,447,452,0
149452872,18411,-39,-2141,0.784776371,-0.619779032,0.092370587,-0.985996037,0.166768747,4762,3040,-9954,203,-2247,40,1033,449,358,0
149472872,17658,358,-2921,0.788010754,-0.615661475,0.087155743,-0.977045574,0.213030386,3554,3682,-13080,153,-2381,155,1049,451,337,0
149492872,15615,-1268,-3991,0.788010754,-0.615661475,0.078459096,-0.965925826,0.258819045,-158,68,-16850,-129,-2575,346,1029,449,241,0
149512872,14082,-4137,-3981,0.784776371,-0.619779032,0.074978727,-0.952129393,0.305695305,-2780,-5994,-18370,-339,-2610,367,1037,435,126,0
149532872,12053,-4526,-4369,0.776046407,-0.630675807,0.069756474,-0.939094252,0.343659695,-6372,-7000,-20480,-705,-2398,362,1011,427,70,0
149552872,10297,-3259,-5597,0.764921401,-0.64412363,0.06104854,-0.927836254,0.372987783,-9468,-4732,-24016,-957,-2161,377,1009,417,-8,0
149572872,7001,-817,-6589,0.751264134,-0.660001668,0.041875654,-0.919821497,0.392337117,-15744,-282,-26762,-1097,-1911,454,995,413,-46,0
149592872,5168,-821,-6339,0.743144825,-0.669130606,0.027921639,-0.915662593,0.401947777,-19250,-814,-26640,-793,-1613,480,983,373,-109,0
149612876,2863,-2088,-5123,0.740804596,-0.671720589,0.027921639,-0.914253955,0.405141587,-23822,-3568,-24288,-287,-1279,325,961,361,-155,0
149632876,1951,-4290,-3593,0.740804596,-0.671720589,0.045362988,-0.913545458,0.406736643,-25716,-7774,-21056,-43,-915,178,951,363,-182,0
149652876,1853,-3921,-991,0.741975841,-0.670426619,0.071497444,-0.913545458,0.406736643,-26006,-6318,-15570,47,-482,17,943,339,-221,0
149672876,2827,-3087,715,0.741975841,-0.670426619,0.094108313,-0.912834177,0.40833046,-24078,-3728,-11968,71,-263,-60,929,337,-193,0
149692876,4958,-2717,3317,0.738455341,-0.674302388,0.104528463,-0.910683661,0.41310443,-19800,-2282,-6656,-98,-63,-95,933,345,-203,0
149712876,7228,-1773,5800,0.734914595,-0.67815967,0.109734311,-0.908508178,0.417867074,-15190,0,-1748,-132,61,-135,913,335,-243,0
149732876,8979,-996,7013,0.733729865,-0.679441304,0.11493715,-0.908508178,0.417867074,-11664,1810,694,68,259,-177,927,357,-195,0
149752876,13708,1946,14269,0.731353702,-0.68199836,0.11493715,-0.910683661,0.41310443,-2294,7906,15466,96,586,-246,931,351,-201,0
149772876,19396,2048,18327,0.727772758,-0.685818353,0.118403968,-0.914253955,0.405141587,8984,8180,23832,10,761,-330,939,345,-187,0
149792876,25197,2987,13127,0.727772758,-0.685818353,0.127064609,-0.918446381,0.395545503,20588,10376,13532,266,478,-531,957,351,-163,0
149812876,22301,4372,6964,0.732542899,-0.680720869,0.140901232,-0.930417568,0.366501227,14524,13690,2070,629,1131,-743,975,371,-159,0
149832876,16745,2535,2385,0.743144825,-0.669130606,0.156434465,-0.940880769,0.33873792,3198,10502,-6298,932,801,-687,979,427,-142,0
149852876,10444,-1854,-5316,0.760405966,-0.649448048,0.17708474,-0.956304756,0.292371705,-9686,2110,-20672,1151,887,-466,977,425,-103,0
149872876,10527,-1490,8189,0.768283524,-0.640109699,0.190808995,-0.962691746,0.270600446,-9934,3400,8080,706,1256,-460,981,453,-78,0
149892876,19727,-3642,9319,0.769399555,-0.638767818,0.199367934,-0.970716482,0.240228042,8316,-666,11186,230,1503,-304,991,463,-52,0
149912876,29426,-7560,-91,0.761538308,-0.648119901,0.204496052,-0.980614659,0.195946144,27488,-8454,-6580,-478,1669,-168,1003,471,20,0
149932876,21028,-544,2171,0.753563392,-0.657375246,0.207911691,-0.987413807,0.158158067,10534,5950,-708,-399,1544,-452,1035,473,72,0
149952876,14522,1936,4204,0.75011107,-0.661311865,0.211324796,-0.992114701,0.125333234,-2596,11142,4614,-18,1515,-485,1029,473,89,0
149972876,15162,-1888,1703,0.748955721,-0.662620048,0.221548498,-0.996041065,0.088894297,-1394,3584,628,11,1463,-484,1057,505,126,0
149992880,16214,-2233,1764,0.74779809,-0.663926213,0.22835087,-0.998440764,0.055821505,700,3152,1828,-45,1382,-410,1043,495,150,0
150012880,16728,-2862,1760,0.744311546,-0.667832555,0.233445364,-0.99970149,0.024432178,1720,2008,2840,-125,1354,-229,1047,509,198,0
150032880,16245,-3614,1994,0.739631095,-0.673012514,0.235142113,-0.999993908,-0.003490651,764,554,4248,-230,1316,-101,1057,517,245,0
150052880,16947,-3459,3214,0.736097087,-0.67687597,0.238533458,-0.999657325,-0.026176948,2220,988,7500,-156,1195,-136,1043,521,244,0
150072880,16852,-5246,1909,0.733729865,-0.679441304,0.245307386,-0.998889875,-0.047106451,2092,-2458,5490,-61,1014,-161,1047,529,287,0
150092880,15385,-5733,823,0.730162277,-0.683273774,0.255445758,-0.99756405,-0.069756474,-730,-3174,4014,-162,1086,-210,1033,533,315,0
150112880,13984,-3664,1799,0.722967146,-0.690882411,0.262189179,-0.996194698,-0.087155743,-3384,1308,6604,-360,1032,-246,1039,519,357,0
150132880,15029,-2815,1159,0.713250449,-0.700909264,0.268919821,-0.994702817,-0.102792537,-1174,3262,5730,-499,893,-243,1013,535,352,0
150152880,15865,-2355,475,0.703394703,-0.710799474,0.272280247,-0.993372766,-0.11493715,598,4384,4750,-525,835,-256,1025,569,401,0
150172880,15004,-831,913,0.695912797,-0.718126298,0.272280247,-0.991894443,-0.127064609,-1040,7520,6026,-337,765,-183,1021,559,391,0
150192880,15316,-1219,1215,0.689619544,-0.724171861,0.272280247,-0.990509463,-0.137444546,-386,6678,6984,-252,727,-97,1011,563,417,0
150212880,15552,-2650,884,0.684547106,-0.728968627,0.272280247,-0.988756381,-0.149535343,130,3762,6700,-226,781,-82,1017,573,431,0
150232880,15642,-2329,92,0.679441304,-0.733729865,0.273959219,-0.985996037,-0.166768747,402,4450,5592,-182,891,-111,1021,573,440,0
150252880,15495,300,1450,0.673012514,-0.739631095,0.272280247,-0.984195608,-0.17708474,220,9810,8742,-281,823,-192,997,581,470,0
150272880,16301,806,1239,0.669130606,-0.743144825,0.270600446,-0.982287251,-0.187381315,1888,10806,8618,-148,726,-255,997,579,485,0
150292880,17047,1360,758,0.675590208,-0.737277337,0.267238376,-0.979222811,-0.202787295,3460,11850,8116,313,787,-320,1003,597,536,0
150312880,15932,94,1686,0.684547106,-0.728968627,0.26387305,-0.977045574,-0.213030386,1266,9128,10392,589,626,-254,993,605,534,0
150332880,16762,-528,1981,0.69465837,-0.7193398,0.260504509,-0.975534544,-0.219846204,2930,7712,11212,626,468,-195,983,603,544,0
150352880,17094,-1644,2837,0.70463421,-0.709570737,0.257132793,-0.974370065,-0.224951054,3590,5284,13138,688,461,-129,963,611,579,0
150372884,17107,-2975,2824,0.71447268,-0.699663341,0.253757945,-0.973578903,-0.22835087,3606,2460,13240,620,433,-68,973,605,585,0
150392884,17587,-2101,2940,0.718126298,-0.695912797,0.248689887,-0.973578903,-0.22835087,4546,4106,13494,341,375,10,977,589,596,0
150412884,18122,-2869,-237,0.721760228,-0.692143174,0.245307386,-0.970716482,-0.240228042,5630,2400,7374,364,647,30,967,589,611,0
150432884,18293,-2256,-3840,0.728968627,-0.684547106,0.236838146,-0.965925826,-0.258819045,6018,3406,574,440,660,121,963,593,627,0
150452884,18142,-2039,-5071,0.734914595,-0.67815967,0.22835087,-0.96174131,-0.273959219,5788,3566,-1410,424,556,137,963,587,682,0
150472884,19747,-4115,-5590,0.744311546,-0.667832555,0.223250116,-0.957319498,-0.289031797,9070,-860,-1968,569,450,88,959,593,663,0
150492884,20757,-7609,-7188,0.758134336,-0.652098404,0.221548498,-0.951056516,-0.309016994,11238,-8032,-4550,901,569,-5,961,571,671,0
150512884,20623,-6560,-8129,0.768283524,-0.640109699,0.221548498,-0.94437637,-0.328866647,11192,-5874,-5830,597,616,-97,941,567,694,0
150532884,20945,-3468,-6305,0.771624583,-0.63607822,0.219846204,-0.940880769,-0.33873792,11994,360,-1778,216,413,-11,935,573,692,0
150552884,21059,-850,-5189,0.768283524,-0.640109699,0.213030386,-0.940880769,-0.33873792,12216,5466,522,-85,136,173,933,573,714,0
150572884,20380,1128,-1302,0.758134336,-0.652098404,0.201077921,-0.94664926,-0.322265695,10656,9108,7944,-435,-306,405,939,579,707,0
150592884,19461,1364,5001,0.744311546,-0.667832555,0.187381315,-0.958322574,-0.285688367,8414,9118,19668,-593,-792,543,953,563,672,0
150612884,19137,2448,11085,0.727772758,-0.685818353,0.173648178,-0.97154912,-0.236838146,7260,10842,30452,-667,-1115,537,955,557,686,0
150632884,18376,3710,12754,0.712026046,-0.702153053,0.163325962,-0.981627183,-0.190808995,5336,13072,32354,-724,-921,302,997,555,616,0
150652884,17521,4469,9556,0.70463421,-0.709570737,0.159881188,-0.985996037,-0.166768747,3450,14546,25106,-317,-197,-177,985,565,600,0
150672884,18343,662,97,0.713250449,-0.700909264,0.163325962,-0.985996037,-0.166768747,5012,6902,5780,459,96,-416,983,567,607,0
150692884,21676,-6139,-6200,0.730162277,-0.683273774,0.16848938,-0.98450318,-0.175366726,11652,-6804,-6844,959,-36,-237,977,561,583,0
150712884,18774,-6521,-7739,0.751264134,-0.660001668,0.170209499,-0.983254908,-0.182235525,5874,-7580,-9750,1239,-159,-46,965,575,618,0
150732884,15149,-4575,-10216,0.77384021,-0.633380873,0.163325962,-0.983254908,-0.182235525,-1448,-3872,-14876,1365,-742,211,969,545,582,0
150752884,13846,-617,-7702,0.805928282,-0.592013179,0.139173101,-0.987413807,-0.158158067,-4298,3468,-10534,2225,-1781,516,991,537,585,0
150772888,13639,-1679,-7741,0.832921241,-0.553391549,0.123601477,-0.992114701,-0.125333234,-4940,750,-11692,1878,-2082,415,1005,497,551,0
150792888,14959,-3899,-7336,0.843391446,-0.537299608,0.120136839,-0.994521895,-0.104528463,-2376,-3924,-11556,812,-1413,227,1013,477,469,0
150812888,13561,-2717,-6894,0.848971688,-0.528438335,0.118403968,-0.995561965,-0.094108313,-5200,-1592,-11066,374,-978,187,1019,485,445,0
150832888,12143,-302,-8044,0.85445883,-0.519519112,0.111468932,-0.995724698,-0.092370587,-8056,3178,-13550,361,-753,168,1041,477,417,0
150852888,11139,-3337,-8447,0.857167301,-0.515038075,0.113203214,-0.996041065,-0.088894297,-10098,-3096,-14458,182,-771,188,1019,477,441,0
150872888,9912,-5551,-8719,0.85445883,-0.519519112,0.116670737,-0.996194698,-0.087155743,-12564,-7520,-15130,-249,-800,227,1037,479,402,0
150892888,9633,-5152,-8180,0.843391446,-0.537299608,0.121869343,-0.995884399,-0.09063258,-13088,-6546,-13886,-863,-395,258,1037,479,371,0
150912888,9948,-4673,-8699,0.826098294,-0.563526049,0.127064609,-0.994521895,-0.104528463,-12402,-5366,-14520,-1337,-17,235,1049,449,367,0
150932888,10077,-3003,-8053,0.806960312,-0.590605668,0.128795597,-0.993372766,-0.11493715,-12090,-1886,-12836,-1365,-33,300,1051,469,375,0
150952888,9989,-2626,-6678,0.79335334,-0.608761429,0.127064609,-0.992757342,-0.120136839,-12238,-1174,-9836,-932,-227,348,1039,445,354,0
150972888,11102,-4367,-5039,0.780430407,-0.625242656,0.128795597,-0.993767919,-0.111468932,-10032,-4686,-6708,-798,-660,301,1047,437,320,0
150992888,12789,-5716,-2045,0.768283524,-0.640109699,0.133986185,-0.996041065,-0.088894297,-6696,-7298,-1246,-785,-950,282,1049,443,326,0
151012888,15633,-5248,-1120,0.753563392,-0.657375246,0.135715572,-0.997915618,-0.064532308,-1036,-6176,-116,-869,-895,226,1047,421,282,0
151032888,15325,-1740,198,0.730162277,-0.683273774,0.135715572,-0.99912283,-0.041875654,-1678,990,1798,-1331,-771,160,1055,427,263,0
151052888,18097,802,2575,0.712026046,-0.702153053,0.13225639,-0.99955986,-0.029666244,3868,6106,6328,-1010,-153,34,1065,443,251,0
151072888,17099,3906,1118,0.698415285,-0.715692734,0.123601477,-0.999194395,-0.040131793,1868,12218,3648,-776,565,-14,1061,425,263,0
151092888,14581,5788,2270,0.685818353,-0.727772758,0.113203214,-0.998341817,-0.057564027,-3160,15768,6644,-631,1023,-69,1069,423,258,0
151112888,16005,6789,3358,0.679441304,-0.733729865,0.104528463,-0.996778878,-0.080198924,-282,17524,9606,-351,1220,-190,1067,433,312,0
151132888,15816,5213,3048,0.670426619,-0.741975841,0.09931975,-0.995884399,-0.09063258,-650,14114,9354,-400,787,-176,1071,439,306,0
151152892,16933,-2011,-2187,0.683273774,-0.730162277,0.111468932,-0.991671162,-0.128795597,1684,-362,-174,660,1381,-484,1061,453,340,0
151172892,19280,-3584,-105,0.713250449,-0.700909264,0.118403968,-0.989776231,-0.142628934,6478,-3336,4566,1681,484,-407,1053,449,378,0
151192892,19166,-850,3256,0.728968627,-0.684547106,0.116670737,-0.991671162,-0.128795597,6234,2222,11010,934,-319,-127,1051,455,369,0
151212892,18851,-1794,-1198,0.737277337,-0.675590208,0.121869343,-0.990509463,-0.137444546,5626,472,2130,457,303,-273,1041,475,384,0
151232892,16044,510,-720,0.744311546,-0.667832555,0.123601477,-0.988228381,-0.152985836,120,5260,3638,438,690,-286,1035,473,387,0
151252892,14779,-185,-247,0.74779809,-0.663926213,0.125333234,-0.985703469,-0.16848938,-2308,3886,5160,210,792,-197,1035,477,416,0
151272892,15983,-1834,-1348,0.751264134,-0.660001668,0.127064609,-0.983571471,-0.180519145,150,546,3264,208,507,-77,1027,487,456,0
151292892,16220,-3612,-1317,0.753563392,-0.657375246,0.130526192,-0.982612797,-0.185666615,656,-3022,3478,153,253,17,1047,477,436,0
151312892,16176,-2595,-965,0.752414909,-0.65868946,0.133986185,-0.981958713,-0.189095443,624,-812,4344,0,296,-69,1049,483,443,0
151332892,16468,-1286,-1597,0.752414909,-0.65868946,0.135715572,-0.980614659,-0.195946144,1260,1966,3240,-17,320,-122,1027,475,458,0
151352892,16380,-976,-1389,0.752414909,-0.65868946,0.137444546,-0.980271175,-0.19765734,1116,2632,3774,13,230,-87,1029,495,466,0
151372892,16181,-591,-1390,0.753563392,-0.657375246,0.135715572,-0.97957525,-0.201077921,736,3388,3870,77,213,-48,1043,509,467,0
151392892,16335,-1027,-1742,0.755853469,-0.654740814,0.133986185,-0.978867389,-0.204496052,1056,2458,3262,171,203,-40,1033,493,474,0
151412892,16227,-1857,-2181,0.758134336,-0.652098404,0.135715572,-0.977783237,-0.209618563,868,780,2516,172,228,-55,1025,493,509,0
151432892,16216,-1839,-2181,0.760405966,-0.649448048,0.137444546,-0.977045574,-0.213030386,880,862,2650,168,198,-83,1029,497,494,0
151452892,16164,-1747,-2056,0.76266833,-0.64678978,0.137444546,-0.976672278,-0.214735327,802,1100,2966,127,130,-81,1011,507,507,0
151472892,16249,-2118,-2534,0.764921401,-0.64412363,0.139173101,-0.975916762,-0.218143241,990,376,2074,147,131,-52,1013,495,511,0
151492892,15807,-2231,-2640,0.766044443,-0.64278761,0.140901232,-0.975149354,-0.221548498,126,182,1924,87,113,-29,1003,487,524,0
151512892,15992,-1922,-2586,0.766044443,-0.64278761,0.140901232,-0.974761194,-0.223250116,518,840,2108,20,71,-9,1009,505,511,0
151532896,16047,-1659,-2699,0.766044443,-0.64278761,0.142628934,-0.974370065,-0.224951054,638,1382,1902,27,60,-7,1007,491,515,0
151552896,16084,-1367,-2848,0.767165152,-0.641449632,0.142628934,-0.973975967,-0.226651307,728,1982,1674,74,58,-10,991,489,518,0
151572896,16088,-1874,-2952,0.769399555,-0.638767818,0.142628934,-0.973578903,-0.22835087,754,972,1522,156,30,-17,1003,509,520,0
151592896,16085,-1811,-2985,0.771624583,-0.63607822,0.142628934,-0.973178873,-0.230049737,760,1120,1502,144,16,-25,1005,493,520,0
151612896,15968,-1923,-2861,0.772733573,-0.634730513,0.144356201,-0.972775878,-0.231747903,538,914,1792,102,13,-15,1007,503,541,0
151632896,15961,-1887,-2651,0.77384021,-0.633380873,0.144356201,-0.972775878,-0.231747903,528,996,2222,74,-14,7,1001,495,528,0
151652896,16066,-1894,-2621,0.77384021,-0.633380873,0.144356201,-0.972775878,-0.231747903,736,990,2278,37,-30,15,1009,489,502,0
151672896,15974,-1863,-2632,0.774944489,-0.632029303,0.144356201,-0.972775878,-0.231747903,0,0,0,54,-20,13,1001,503,518,0
151692896,16009,-1663,-2734,0.776046407,-0.630675807,0.144356201,-0.972775878,-0.231747903,0,0,0,61,-19,12,1023,505,533,0
151712896,16043,-1595,-2656,0.777145961,-0.629320391,0.144356201,-0.972775878,-0.231747903,0,0,0,82,-44,11,993,505,528,0
151732896,16129,-1470,-2613,0.778243149,-0.627963058,0.144356201,-0.973178873,-0.230049737,0,0,0,91,-57,8,1003,507,566,0
151752896,16027,-1615,-2638,0.779337965,-0.626603811,0.144356201,-0.973178873,-0.230049737,0,0,0,114,-42,3,1015,489,523,0
151772896,15983,-1847,-2770,0.780430407,-0.625242656,0.144356201,-0.973178873,-0.230049737,0,0,0,119,-69,14,995,509,548,0
151792896,16022,-2117,-2738,0.782608157,-0.622514637,0.144356201,-0.973578903,-0.22835087,0,0,0,118,-71,6,1009,517,531,0
151812896,15981,-2075,-2647,0.783693457,-0.62114778,0.144356201,-0.973578903,-0.22835087,0,0,0,117,-58,0,1027,503,541,0
151832896,16020,-1998,-2626,0.785856893,-0.618408395,0.146083029,-0.973578903,-0.22835087,0,0,0,101,-38,4,1007,511,547,0
151852896,15917,-1883,-2383,0.786935022,-0.617035875,0.146083029,-0.973975967,-0.226651307,0,0,0,103,-55,5,1017,505,549,0
151872896,16078,-2034,-2380,0.786935022,-0.617035875,0.146083029,-0.973975967,-0.226651307,0,0,0,111,-60,16,1003,523,537,0
151892896,16021,-2014,-2390,0.786935022,-0.617035875,0.144356201,-0.974370065,-0.224951054,0,0,0,104,-56,19,1019,525,540,0
151912900,15934,-1947,-2373,0.786935022,-0.617035875,0.144356201,-0.974370065,-0.224951054,0,0,0,97,-45,23,1021,503,533,0
151932900,16048,-1850,-2487,0.786935022,-0.617035875,0.144356201,-0.974761194,-0.223250116,0,0,0,88,-53,22,995,513,550,0
151952900,15939,-1833,-2379,0.785856893,-0.618408395,0.144356201,-0.974761194,-0.223250116,0,0,0,74,-59,28,1005,521,518,0
151972900,15951,-1911,-2486,0.785856893,-0.618408395,0.144356201,-0.974761194,-0.223250116,0,0,0,71,-60,30,1007,509,545,0
151992900,16006,-1908,-2392,0.785856893,-0.618408395,0.144356201,-0.975149354,-0.221548498,0,0,0,76,-49,33,1013,509,526,0
152012900,16053,-1860,-2253,0.785856893,-0.618408395,0.142628934,-0.975149354,-0.221548498,0,0,0,69,-44,26,1009,515,512,0
152032900,16103,-1840,-2310,0.785856893,-0.618408395,0.142628934,-0.975534544,-0.219846204,0,0,0,57,-35,32,997,499,512,0
152052900,15926,-1773,-2331,0.785856893,-0.618408395,0.142628934,-0.975534544,-0.219846204,0,0,0,55,-34,37,1009,519,498,0
152072900,16038,-1730,-2401,0.785856893,-0.618408395,0.142628934,-0.975916762,-0.218143241,0,0,0,66,-42,38,995,505,504,0
152092900,16095,-1863,-2271,0.785856893,-0.618408395,0.142628934,-0.975916762,-0.218143241,0,0,0,85,-36,28,1019,505,516,0
152112900,16000,-1772,-2129,0.785856893,-0.618408395,0.142628934,-0.976296007,-0.216439614,0,0,0,94,-28,20,1013,505,514,0
152132900,16066,-1696,-2111,0.785856893,-0.618408395,0.140901232,-0.976296007,-0.216439614,0,0,0,76,-20,26,1017,503,523,0
152152900,16113,-1423,-2000,0.785856893,-0.618408395,0.140901232,-0.976672278,-0.214735327,0,0,0,54,-21,29,1011,511,522,0
152172900,16075,-1564,-1961,0.785856893,-0.618408395,0.140901232,-0.976672278,-0.214735327,0,0,0,71,-24,32,1005,499,519,0
152192900,16108,-1614,-2179,0.785856893,-0.618408395,0.139173101,-0.977045574,-0.213030386,0,0,0,77,-17,19,1009,507,491,0
152212900,16007,-1561,-2181,0.785856893,-0.618408395,0.139173101,-0.977045574,-0.213030386,0,0,0,62,-14,22,1021,505,518,0
152232900,16037,-1623,-2244,0.785856893,-0.618408395,0.139173101,-0.977045574,-0.213030386,0,0,0,80,-13,24,1025,491,511,0
152252900,16095,-1701,-2319,0.784776371,-0.619779032,0.139173101,-0.977415894,-0.211324796,0,0,0,83,-6,19,1007,511,545,0
152272900,16045,-1834,-2372,0.784776371,-0.619779032,0.139173101,-0.977415894,-0.211324796,0,0,0,79,-2,21,1031,513,521,0
152292904,15982,-1752,-2374,0.784776371,-0.619779032,0.137444546,-0.977783237,-0.209618563,0,0,0,88,-14,22,1027,497,514,0
152312904,16126,-1739,-2436,0.784776371,-0.619779032,0.137444546,-0.977783237,-0.209618563,0,0,0,71,-18,22,1011,503,509,0
152332904,16018,-1575,-2372,0.784776371,-0.619779032,0.137444546,-0.977783237,-0.209618563,0,0,0,61,-8,19,1021,501,516,0
152352904,15978,-1446,-2406,0.784776371,-0.619779032,0.137444546,-0.978147601,-0.207911691,0,0,0,82,4,18,1019,507,517,0
152372904,16048,-1603,-2296,0.784776371,-0.619779032,0.137444546,-0.978147601,-0.207911691,0,0,0,79,-20,16,1019,493,547,0
152392904,16108,-1670,-2403,0.784776371,-0.619779032,0.135715572,-0.978147601,-0.207911691,0,0,0,70,-9,19,1025,491,515,0
152412904,16013,-1566,-2271,0.784776371,-0.619779032,0.135715572,-0.978508985,-0.206204185,0,0,0,58,-12,19,1023,495,543,0
152432904,,,,0.784776371,-0.619779032,0.135715572,-0.978508985,-0.206204185,,,,,,,,,,0
135652728,,,,,,,,,0,0,0,,,,,,,0
181493208,15832,-2614,-2924,-0.741975841,-0.670426619,0.187381315,-0.986572162,-0.163325962,0,0,0,45,-12,19,355,467,360,0
181513208,15860,-2574,-2944,-0.741975841,-0.670426619,0.185666615,-0.986572162,-0.163325962,0,0,0,57,-2,18,357,461,356,0
181533208,15807,-2516,-2941,-0.741975841,-0.670426619,0.185666615,-0.986572162,-0.163325962,0,0,0,57,7,11,367,469,361,0
181553208,15843,-2499,-2851,-0.741975841,-0.670426619,0.185666615,-0.986572162,-0.163325962,0,0,0,53,-5,23,357,459,372,0
181573208,15835,-2461,-2982,-0.741975841,-0.670426619,0.185666615,-0.986572162,-0.163325962,0,0,0,51,-4,17,361,459,344,0
181593208,15865,-2464,-3002,-0.741975841,-0.670426619,0.185666615,-0.986572162,-0.163325962,0,0,0,46,-16,25,357,451,377,0
181613208,15932,-2446,-3058,-0.741975841,-0.670426619,0.183951351,-0.986572162,-0.163325962,0,0,0,49,-15,24,367,453,344,0
181633208,15836,-2332,-3018,-0.741975841,-0.670426619,0.183951351,-0.986572162,-0.163325962,0,0,0,66,-14,12,357,459,361,0
181653208,15906,-2452,-2982,-0.741975841,-0.670426619,0.183951351,-0.986285602,-0.165047606,0,0,0,76,-23,14,343,453,366,0
181673208,15841,-2552,-2903,-0.741975841,-0.670426619,0.183951351,-0.986285602,-0.165047606,0,0,0,82,-24,17,349,453,353,0
181693208,15894,-2546,-2917,-0.741975841,-0.670426619,0.183951351,-0.986285602,-0.165047606,0,0,0,83,-28,17,357,457,351,0
181713208,15860,-2577,-3012,-0.741975841,-0.670426619,0.183951351,-0.986285602,-0.165047606,0,0,0,67,-18,19,345,463,348,0
181733208,15814,-2545,-3004,-0.741975841,-0.670426619,0.182235525,-0.986285602,-0.165047606,0,0,0,64,-30,25,357,459,360,0
181753208,15954,-2506,-3049,-0.741975841,-0.670426619,0.182235525,-0.986285602,-0.165047606,0,0,0,62,-29,24,363,473,344,0
181773208,15775,-2548,-2921,-0.741975841,-0.670426619,0.182235525,-0.986285602,-0.165047606,0,0,0,61,-23,25,365,443,362,0
181793208,15822,-2582,-2961,-0.741975841,-0.670426619,0.182235525,-0.986285602,-0.165047606,0,0,0,70,-28,20,357,483,341,0
181813208,15973,-2408,-2917,-0.741975841,-0.670426619,0.182235525,-0.986285602,-0.165047606,0,0,0,54,-24,16,347,461,344,0
181833208,15900,-2385,-3008,-0.741975841,-0.670426619,0.182235525,-0.986285602,-0.165047606,0,0,0,42,-22,24,353,443,358,0
181853208,15826,-2382,-2956,-0.741975841,-0.670426619,0.180519145,-0.986285602,-0.165047606,0,0,0,49,-41,31,351,457,358,0
181873212,15839,-2514,-2997,-0.741975841,-0.670426619,0.180519145,-0.985996037,-0.166768747,0,0,0,44,-38,31,361,465,369,0
181893212,15931,-2498,-3076,-0.741975841,-0.670426619,0.180519145,-0.985996037,-0.166768747,0,0,0,46,-35,32,359,479,360,0
181913212,15863,-2489,-3257,-0.741975841,-0.670426619,0.180519145,-0.985996037,-0.166768747,0,0,0,48,-47,37,371,459,341,0
181933212,15853,-2433,-3347,-0.741975841,-0.670426619,0.180519145,-0.985996037,-0.166768747,0,0,0,59,-62,36,355,453,337,0
181953212,15750,-2619,-3318,-0.741975841,-0.670426619,0.180519145,-0.985996037,-0.166768747,0,0,0,71,-56,30,379,451,346,0
181973212,15775,-2526,-3132,-0.741975841,-0.670426619,0.178802215,-0.985996037,-0.166768747,0,0,0,64,-75,37,369,459,365,0
181993212,15907,-2400,-3137,-0.741975841,-0.670426619,0.178802215,-0.985703469,-0.16848938,0,0,0,62,-88,36,365,459,349,0
182013212,15863,-2675,-3111,-0.741975841,-0.670426619,0.178802215,-0.985703469,-0.16848938,0,0,0,57,-81,36,383,477,354,0
182033212,15823,-2619,-3027,-0.741975841,-0.670426619,0.178802215,-0.985703469,-0.16848938,0,0,0,43,-80,29,371,469,369,0
182053212,15830,-2404,-2836,-0.741975841,-0.670426619,0.178802215,-0.985703469,-0.16848938,0,0,0,35,-87,32,359,455,343,0
182073212,15941,-2309,-2733,-0.741975841,-0.670426619,0.178802215,-0.985703469,-0.16848938,0,0,0,50,-103,42,381,465,342,0
182093212,15998,-2287,-2559,-0.741975841,-0.670426619,0.17708474,-0.985703469,-0.16848938,0,0,0,66,-98,30,355,463,363,0
182113212,15944,-2382,-2563,-0.741975841,-0.670426619,0.17708474,-0.985703469,-0.16848938,0,0,0,63,-93,28,375,467,355,0
182133212,15897,-2341,-2522,-0.741975841,-0.670426619,0.17708474,-0.985703469,-0.16848938,0,0,0,39,-81,30,367,475,343,0
182153212,15811,-2214,-2361,-0.741975841,-0.670426619,0.17708474,-0.985703469,-0.16848938,0,0,0,37,-94,40,365,465,348,0
182173212,15894,-2344,-2265,-0.741975841,-0.670426619,0.17708474,-0.985996037,-0.166768747,130,1132,880,63,-87,34,383,463,361,0
182193212,15955,-2409,-2282,-0.741975841,-0.670426619,0.175366726,-0.985996037,-0.166768747,248,994,838,57,-79,31,373,459,337,0
182213212,15956,-2350,-2344,-0.741975841,-0.670426619,0.175366726,-0.985996037,-0.166768747,248,1110,698,35,-79,31,385,463,335,0
182233212,16037,-2283,-2311,-0.741975841,-0.670426619,0.175366726,-0.985996037,-0.166768747,0,0,0,36,-81,36,371,455,338,0
182253216,15961,-2224,-2300,-0.741975841,-0.670426619,0.175366726,-0.985996037,-0.166768747,0,0,0,25,-63,32,369,467,341,0
182273216,15839,-2178,-2057,-0.741975841,-0.670426619,0.175366726,-0.985996037,-0.166768747,8,1416,1270,61,-61,33,379,469,330,0
182293216,15958,-2499,-2073,-0.740804596,-0.671720589,0.175366726,-0.985996037,-0.166768747,244,764,1248,86,-63,26,365,457,342,0
182313216,16032,-2522,-2128,-0.740804596,-0.671720589,0.173648178,-0.985996037,-0.166768747,0,0,0,64,-39,16,369,455,358,0
182333216,15896,-2191,-2040,-0.740804596,-0.671720589,0.173648178,-0.985996037,-0.166768747,0,0,0,57,-32,27,383,463,340,0
182353216,15977,-2326,-2058,-0.740804596,-0.671720589,0.173648178,-0.986285602,-0.165047606,0,0,0,54,-15,17,361,465,346,0
182373216,15890,-2410,-2141,-0.740804596,-0.671720589,0.173648178,-0.986285602,-0.165047606,0,0,0,62,0,18,369,455,340,0
182393216,15960,-2227,-2084,-0.740804596,-0.671720589,0.173648178,-0.986285602,-0.165047606,0,0,0,36,2,19,383,463,342,0
182413216,16002,-2199,-2191,-0.740804596,-0.671720589,0.1719291,-0.986285602,-0.165047606,0,0,0,50,1,19,363,463,344,0
182433216,16022,-2262,-2177,-0.740804596,-0.671720589,0.1719291,-0.986285602,-0.165047606,0,0,0,66,1,12,375,461,340,0
182453216,15953,-2313,-2210,-0.741975841,-0.670426619,0.1719291,-0.986572162,-0.163325962,0,0,0,67,9,9,367,469,340,0
182473216,15955,-2274,-2290,-0.741975841,-0.670426619,0.1719291,-0.986572162,-0.163325962,0,0,0,57,15,9,373,459,365,0
182493216,16083,-2258,-2397,-0.740804596,-0.671720589,0.1719291,-0.986572162,-0.163325962,0,0,0,36,15,10,373,459,349,0
182513216,15831,-2318,-2585,-0.740804596,-0.671720589,0.170209499,-0.986572162,-0.163325962,0,0,0,42,33,5,369,463,333,0
182533216,15764,-2196,-2581,-0.741975841,-0.670426619,0.170209499,-0.986572162,-0.163325962,0,0,0,51,16,8,367,465,342,0
182553216,15794,-2127,-2459,-0.740804596,-0.671720589,0.170209499,-0.986572162,-0.163325962,0,0,0,54,16,12,351,463,367,0
182573216,15800,-2384,-2235,-0.740804596,-0.671720589,0.170209499,-0.986572162,-0.163325962,0,0,0,50,12,16,357,479,361,0
182593216,16376,-2618,-2638,-0.741975841,-0.670426619,0.170209499,-0.986572162,-0.163325962,0,0,0,63,4,27,379,471,377,0
182613216,15746,-2374,-2915,-0.740804596,-0.671720589,0.170209499,-0.986572162,-0.163325962,0,0,0,18,39,28,367,469,349,0
182633220,15504,-2479,-2702,-0.741975841,-0.670426619,0.16848938,-0.986572162,-0.163325962,0,0,0,66,39,22,359,465,353,0
182653220,16024,-2744,-2595,-0.741975841,-0.670426619,0.16848938,-0.986572162,-0.163325962,0,0,0,59,6,34,359,469,362,0
182673220,16034,-2662,-2426,-0.741975841,-0.670426619,0.16848938,-0.986572162,-0.163325962,0,0,0,26,11,33,375,461,375,0
182693220,15829,-2477,-2508,-0.741975841,-0.670426619,0.16848938,-0.986572162,-0.163325962,0,0,0,26,20,43,367,459,348,0
182713220,15743,-2812,-2220,-0.741975841,-0.670426619,0.16848938,-0.986572162,-0.163325962,0,0,0,51,10,38,361,463,361,0
182733220,16242,-2800,-2148,-0.741975841,-0.670426619,0.16848938,-0.986572162,-0.163325962,0,0,0,41,15,35,359,465,369,0
182753220,16274,-2385,-2124,-0.741975841,-0.670426619,0.16848938,-0.986855716,-0.161603821,0,0,0,42,64,26,367,463,364,0
182773220,15939,-2275,-2245,-0.741975841,-0.670426619,0.16848938,-0.986855716,-0.161603821,0,0,0,72,74,31,361,471,355,0
182793220,15714,-2526,-2350,-0.741975841,-0.670426619,0.16848938,-0.986855716,-0.161603821,0,0,0,107,90,26,373,455,369,0
182813220,15680,-2299,-2278,-0.741975841,-0.670426619,0.16848938,-0.986855716,-0.161603821,0,0,0,108,79,25,401,467,359,0
182833220,15733,-2401,-1974,-0.741975841,-0.670426619,0.16848938,-0.986855716,-0.161603821,0,0,0,116,62,32,363,449,356,0
182853220,16026,-2567,-2096,-0.741975841,-0.670426619,0.16848938,-0.986855716,-0.161603821,0,0,0,100,71,47,361,449,367,0
182873220,16044,-2562,-2445,-0.741975841,-0.670426619,0.166768747,-0.986855716,-0.161603821,0,0,0,65,99,44,363,449,359,0
