timestamp,ax,ay,az,roll1,roll2,pitch,yaw1,yaw2,fx,fy,fz,gx,gy,gz,mx,my,mz,step
219738328,15318,4128,-2438,-0.92541864,-0.290183449,-0.227019029,0.969841147,-0.041229386,346,914,4760,213,-193,71,543,-537,971,0
219758328,15791,3691,-2669,-0.928085234,-0.280745585,-0.228184424,0.969747907,-0.037371362,1206,-32,3976,213,-172,50,539,-529,979,0
219778328,15772,3813,-3052,-0.930216514,-0.272799494,-0.229356584,0.969616942,-0.034277173,1086,180,2920,187,-154,54,553,-555,975,0
219798328,15959,3858,-2845,-0.93252147,-0.263535935,-0.230823526,0.969333289,-0.031924495,1384,224,3038,160,-210,74,545,-561,983,0
219818328,16170,3452,-2517,-0.935632698,-0.252022572,-0.231320456,0.969269097,-0.030758381,1714,-630,3322,110,-307,82,555,-533,991,0
219838328,15880,3576,-2184,-0.939237814,-0.238122413,-0.232034118,0.969146591,-0.031633327,1012,-396,3536,30,-429,99,565,-551,977,0
219858328,15975,4054,-1357,-0.94341922,-0.219202597,-0.233743291,0.968605125,-0.033903496,1060,532,4606,-37,-612,122,557,-555,960,0
219878328,16739,4059,-311,-0.948450536,-0.19475304,-0.235666999,0.968080839,-0.036916064,2432,472,5934,-74,-810,147,571,-573,965,0
219898328,17479,4194,799,-0.953811871,-0.16526844,-0.23663988,0.967583699,-0.041239101,3730,706,7222,-149,-993,124,579,-571,939,0
219918328,17642,4979,2080,-0.959163057,-0.130670877,-0.237482291,0.96719034,-0.046639774,3870,2288,8682,-205,-1181,69,591,-573,941,0
219938328,18142,5353,4919,-0.964178722,-0.085138936,-0.238645193,0.966496151,-0.054572482,4694,3008,12970,-339,-1544,74,593,-561,917,0
219958328,17820,4308,8097,-0.96756673,-0.030437069,-0.238741098,0.965252822,-0.071559759,3926,862,17644,-738,-1892,102,623,-565,898,0
219978328,19305,5165,5864,-0.968132744,-0.008969972,-0.238443297,0.96446603,-0.081687609,6878,2590,12028,-334,-943,37,639,-569,928,0
219998328,19188,5927,4605,-0.968290731,0.0064764,-0.238018935,0.964690469,-0.080066264,6644,4128,9000,145,-576,24,659,-589,885,0
220018328,20047,6387,2076,-0.968590071,0.022531282,-0.236085292,0.965949534,-0.0706071,8350,5110,3416,468,-523,-33,641,-589,890,0
220038328,19979,6446,-379,-0.969124045,0.040944502,-0.231361771,0.967937566,-0.05747495,8196,5376,-2094,621,-584,-135,673,-597,868,0
220058328,20218,5113,-504,-0.969730521,0.066101652,-0.223134349,0.970388187,-0.048209498,8654,2972,-3170,480,-904,-272,699,-595,850,0
220078328,21059,2671,-199,-0.969723593,0.097545024,-0.211478878,0.973017188,-0.046367714,10330,-1538,-3586,199,-1232,-426,709,-611,852,0
220098328,20257,1295,-224,-0.969714697,0.127737992,-0.195043072,0.976079198,-0.052352199,8768,-3888,-4758,-61,-1410,-490,725,-623,844,0
220118328,20320,1671,-1429,-0.968512829,0.154643022,-0.18122168,0.978165196,-0.060834231,8942,-2658,-8132,-141,-1392,-440,757,-623,836,0
220138328,18722,1041,-1780,-0.965622883,0.18366494,-0.169822519,0.979475515,-0.071678089,5858,-3562,-9836,-233,-1563,-350,789,-619,768,0
220158328,18580,301,-1007,-0.960480131,0.21791216,-0.158723064,0.97987625,-0.08880049,5746,-4712,-9398,-483,-1818,-371,801,-613,742,0
220178328,18296,-931,249,-0.953069065,0.254083738,-0.149858979,0.978510991,-0.114193954,5426,-6946,-8034,-850,-1921,-316,799,-611,735,0
220198328,17425,756,832,-0.944050603,0.288660018,-0.14519688,0.974735342,-0.147253977,3972,-3328,-8004,-1154,-1915,-386,817,-645,690,0
220218328,13837,2151,1446,-0.932550039,0.323661905,-0.146037558,0.968682775,-0.181008155,-2844,-460,-7902,-1216,-1933,-361,827,-619,643,0
220238328,12503,3601,3029,-0.917947847,0.360848065,-0.151834701,0.961443622,-0.211262289,-5074,2358,-5874,-1116,-1930,-307,837,-635,620,0
220258328,12430,3851,3293,-0.903450469,0.393786555,-0.15781792,0.954309203,-0.237507239,-4728,2682,-6446,-941,-1773,-298,843,-631,565,0
220278328,11135,4469,3279,-0.889345486,0.424713634,-0.158296249,0.948165391,-0.260258818,-6892,3770,-7348,-802,-1495,-337,837,-631,548,0
220298328,10981,3933,3104,-0.876624215,0.450791707,-0.157664847,0.941851739,-0.282325456,-6778,2718,-8556,-746,-1289,-394,831,-647,531,0
220318328,11188,3939,3044,-0.864100525,0.474744095,-0.156793527,0.935410127,-0.302954316,-5954,2758,-9462,-683,-1197,-401,857,-629,515,0
220338328,11137,3820,3597,-0.850998595,0.497519895,-0.158457003,0.928644635,-0.322235711,-5624,2468,-9104,-675,-1159,-308,839,-629,476,0
220358328,10331,5173,4448,-0.838669913,0.517041234,-0.162083185,0.921864973,-0.339241628,-6832,5056,-8042,-634,-1016,-216,847,-639,467,0
220378328,10019,5110,4903,-0.827762175,0.533204181,-0.166144139,0.915598918,-0.353815639,-7094,4802,-7664,-555,-856,-161,833,-645,442,0
220398328,10026,4677,4947,-0.81747557,0.547424462,-0.171134,0.908520235,-0.369238207,-6744,3772,-8042,-608,-786,-164,847,-665,439,0
220418328,9377,4492,4609,-0.808216901,0.559162077,-0.177436985,0.900601031,-0.385272983,-7736,3200,-9102,-664,-690,-154,847,-643,420,0
220438328,8904,5165,5308,-0.799989831,0.569064891,-0.18340211,0.892680224,-0.40046213,-8414,4352,-8030,-629,-604,-159,839,-649,410,0
220458328,8129,5321,5487,-0.794501809,0.574890679,-0.189248374,0.884463463,-0.415632699,-9782,4478,-7864,-627,-407,-173,843,-665,409,0
220478328,7714,5555,6902,-0.792167297,0.577698475,-0.190571066,0.878899764,-0.426624466,-10536,4904,-5126,-356,-195,-209,845,-653,392,0
220498328,8160,4908,5988,-0.793272465,0.576878441,-0.188376075,0.873433262,-0.438537719,-9678,3680,-6926,-298,7,-345,845,-663,379,0
220518328,8042,5629,4397,-0.798776874,0.571085935,-0.182503146,0.868152555,-0.451261528,-10094,5310,-9918,-234,275,-479,865,-661,404,0
220538328,5653,6584,2649,-0.807525292,0.562198043,-0.170841254,0.865409961,-0.460843833,-15160,7598,-13122,29,489,-577,861,-645,372,0
220558328,3622,6037,3065,-0.819091408,0.550849659,-0.151005651,0.86601571,-0.466384083,-19604,7144,-11918,379,677,-733,885,-643,405,0
220578328,16160,-62,19873,-0.815322958,0.565367244,-0.112913099,0.874713659,-0.460857363,5588,-3818,21226,1252,-476,-1036,915,-621,402,0
220598328,20244,7132,4348,-0.836813429,0.536375603,-0.094662289,0.877639864,-0.459373124,13052,11166,-8872,579,1537,-518,909,-601,400,0
220618328,22366,10476,8238,-0.852590069,0.514765605,-0.0694465,0.883419352,-0.452660346,16778,18678,-384,915,1171,-647,919,-565,432,0
220638328,15591,9727,2781,-0.876925664,0.473286202,-0.05927632,0.89385079,-0.433608953,2528,17976,-10178,1354,1736,-372,941,-549,445,0
220658328,13866,5690,4394,-0.898786219,0.431132762,-0.049623485,0.900735257,-0.420249911,-1702,10068,-5448,982,1857,-376,949,-545,495,0
220678328,16871,119,3643,-0.916882981,0.392328827,-0.037213661,0.909501683,-0.402671607,3758,-1012,-5734,1010,1593,-54,983,-533,513,0
220698328,15695,-4854,2173,-0.932383403,0.354728632,-0.022766817,0.915328987,-0.390341939,908,-10760,-7466,678,1464,58,1011,-525,541,0
220718328,15364,-5644,2355,-0.943859167,0.323221128,-0.010019645,0.916573234,-0.387874786,-152,-11958,-6030,220,1216,-8,1007,-535,552,0
220738328,15590,-5924,3324,-0.952485928,0.296634894,0.001964021,0.914077843,-0.393697131,-12,-12126,-3150,-146,1078,-102,1017,-515,591,0
220758328,15972,-7090,4517,-0.958318248,0.276621781,0.016176076,0.909860734,-0.403105929,534,-14020,-36,-286,889,-190,1027,-531,619,0
220778328,15688,-2553,3488,-0.963809684,0.256011508,0.021908244,0.903555233,-0.416526988,-206,-4522,-1450,-485,881,-185,1049,-529,601,0
220798328,15515,962,2859,-0.969034396,0.235375851,0.020241838,0.897366777,-0.429736095,-716,2668,-2044,-486,861,-134,1049,-521,643,0
220818328,16682,2881,3688,-0.973442437,0.216607105,0.014878734,0.893056104,-0.438805992,1462,6428,278,-318,841,-54,1045,-513,648,0
220838328,16104,3434,1737,-0.977933766,0.195243238,0.007452797,0.891009161,-0.442988561,174,7322,-3006,-118,836,42,1055,-519,668,0
220858328,16668,3453,-1063,-0.982680758,0.169898277,1.97E-05,0.891045835,-0.443307091,1174,7104,-7916,62,817,94,1061,-521,700,0
220878328,19803,3161,-875,-0.986644512,0.144372521,-0.007195894,0.892292188,-0.440760987,7294,6232,-6660,178,875,170,1069,-541,713,0
220898328,21078,3110,-3756,-0.989496432,0.121356189,-0.01470244,0.892997839,-0.43885036,9722,5738,-11480,119,1002,353,1059,-529,755,0
220918328,23369,418,-4854,-0.991895687,0.097278558,-0.024695929,0.893696418,-0.437074134,14228,26,-12892,116,1038,452,1069,-537,750,0
220938328,24807,1467,-5651,-0.993606325,0.070367699,-0.038707496,0.891798455,-0.439823397,17044,1666,-13600,-100,1145,596,1061,-561,810,0
220958328,25029,1035,-5975,-0.994399892,0.038920766,-0.056128276,0.888163341,-0.445234651,17460,232,-13216,-221,1320,733,1055,-553,803,0
220978328,26770,-1098,-2696,-0.993839208,0.00452622,-0.074471687,0.881751258,-0.455132104,20960,-4634,-5528,-409,1421,776,1055,-585,847,0
220998328,28013,-1995,3623,-0.991670424,-0.030413006,-0.093157464,0.870188249,-0.473384971,23512,-7040,8260,-784,1408,815,1021,-587,881,0
221018328,26395,-773,10975,-0.988622639,-0.062311241,-0.107912456,0.853369568,-0.500074418,20378,-5078,24010,-1169,1230,702,1003,-597,889,0
221038328,21429,6389,15623,-0.985019905,-0.091454262,-0.118525708,0.831998073,-0.532374159,10560,8902,-31272,-1454,1075,597,987,-621,915,0
221058328,15918,9619,16670,-0.980661202,-0.119499393,-0.128370911,0.812721072,-0.558984587,-314,15042,-28262,-1203,1050,584,983,-617,954,0
221078328,11044,7053,15793,-0.974369686,-0.150816277,-0.141765583,0.799702935,-0.574205942,-9854,9474,-28994,-646,1251,695,961,-635,968,0
221098328,10391,-432,15263,-0.971193103,-0.159836443,-0.152972189,0.795249861,-0.577455167,-10882,-5942,-28876,-200,1508,660,953,-645,981,0
221118328,8904,-4323,19078,-0.965022851,-0.183523018,-0.164932919,0.792581538,-0.577985222,-13820,-14026,-21360,87,1042,531,953,-677,1034,0
221138328,13872,-7663,21337,-0.964522634,-0.183237437,-0.168452862,0.787783919,-0.583580183,-3864,-20818,-16860,-184,-8,238,937,-687,1035,0
221158328,16902,-5198,14320,-0.966492439,-0.174873564,-0.166134937,0.779728474,-0.594865549,2130,-15814,-31164,-491,-396,52,959,-701,1021,0
221178328,18464,-984,5378,-0.972477093,-0.153844304,-0.151589981,0.772063814,-0.608455159,5154,-7100,16210,-678,-431,-192,969,-705,1019,0
221198332,19157,774,23,-0.977129146,-0.136855917,-0.137574688,0.764154904,-0.621533083,6324,-3042,4668,-623,-589,-307,973,-697,1011,0
221218332,21457,558,-1402,-0.981535265,-0.110864941,-0.129772616,0.755420586,-0.633631477,10740,-3126,840,-562,-1106,-196,997,-699,990,0
221238332,23953,1142,-5228,-0.985998474,-0.075847037,-0.121894118,0.743947048,-0.6485513,15582,-1702,-7956,-711,-1490,-205,1013,-693,960,0
221258332,24769,4286,-6687,-0.990172386,-0.02200583,-0.110122292,0.727996886,-0.668223236,17056,4968,-12616,-974,-2273,-384,1021,-679,902,0
221278332,24885,7223,-4803,-0.990726158,0.05636644,-0.094166779,0.71155715,-0.687982101,17242,11360,-11392,-955,-3256,-625,1045,-669,823,0
221298332,27963,9770,-2427,-0.984000456,0.142847653,-0.074871354,0.701664638,-0.700485025,23612,17086,-9478,-484,-3543,-804,1059,-669,793,0
221318332,29166,11280,-3443,-0.971009167,0.221695568,-0.052430879,0.70163676,-0.70248458,26456,20840,-14106,186,-3204,-868,1051,-657,665,0
221338332,29650,9107,-3881,-0.954110065,0.290144375,-0.027376931,0.706778627,-0.698833782,27990,17318,-17238,586,-2804,-881,1051,-647,630,0
221358332,26694,5244,-2929,-0.936027922,0.345624655,-0.005042291,0.71458948,-0.691405298,22684,10324,-17164,781,-2311,-684,1025,-643,526,0
221378332,23504,4568,-4397,-0.918183532,0.390572486,0.016356486,0.720147602,-0.685356386,16896,9672,-21578,707,-1911,-649,1013,-637,517,0
221398332,19752,4228,-7456,-0.901722966,0.426153874,0.037827069,0.721647199,-0.68299282,9940,9696,-28868,536,-1545,-712,1017,-649,454,0
221418332,14181,2666,-8337,-0.899277475,0.430730846,0.049804947,0.723130865,-0.681818264,-746,7142,-31500,424,-1161,-579,987,-635,405,0
221438332,8500,1530,-9692,-0.891357223,0.445143437,0.059956608,0.7200184,-0.683111021,-12228,5026,31576,136,-589,-395,995,-617,373,0
221458332,-598,5594,-9418,-0.890787609,0.446453271,0.058559415,0.714846022,-0.688567879,-30388,13108,32070,-218,14,-45,979,-629,371,0
221478332,2381,6845,-8902,-0.896282913,0.435955267,0.052938588,0.718389461,-0.685348423,-24612,15426,-32088,155,526,329,965,-621,379,0
221498332,1249,2547,-6193,-0.907294808,0.411636215,0.058456946,0.732780585,-0.669616554,-27242,7010,-25868,961,1091,202,979,-637,391,0
221518332,243,-1292,-6870,-0.916506328,0.387322096,0.076695456,0.740299389,-0.659475328,-29558,-70,-26426,844,1075,-437,979,-633,431,0
221538332,-1383,-425,-5327,-0.921587022,0.370272076,0.096824054,0.740464637,-0.656686673,32564,2320,-22784,470,767,-684,1007,-615,429,0
221558332,-172,1482,-40,-0.928913709,0.345354959,0.116256982,0.748928979,-0.643906511,-30796,6768,-11390,939,1043,-477,1003,-599,466,0
221578332,8767,5515,30193,-0.922277329,0.349224176,0.152309483,0.773695862,-0.606174486,-12716,16006,-16574,2298,-434,-699,1003,-589,437,0
221598332,9427,-983,-11323,-0.947534323,0.263881741,0.168713846,0.799987033,-0.567943873,-11980,3544,-32116,1917,2317,-40,1003,-551,468,0
221618332,22776,-7791,23492,-0.947046064,0.251440376,0.187669304,0.812983114,-0.542032572,14494,-9462,-26772,1392,355,-407,1017,-541,476,0
221638332,20173,-2632,56,-0.955286814,0.224539353,0.179599218,0.82092694,-0.532999981,9096,632,-7456,441,850,413,1029,-537,475,0
221658332,11183,8193,4400,-0.961332761,0.216190351,0.155003826,0.82329537,-0.536679514,-9060,22106,1862,-3,610,192,1005,-535,484,0
221678332,17000,-2206,726,-0.966747925,0.190230772,0.154931459,0.832147384,-0.523034403,2346,668,-4924,705,856,146,1011,-555,508,0
221698332,16642,-10717,469,-0.96911104,0.164166896,0.168657685,0.835565194,-0.513168262,1478,-16314,-4564,476,919,31,1035,-535,512,0
221718332,19358,-1897,908,-0.971521508,0.149094328,0.168699244,0.832231645,-0.518632844,6906,1778,-3170,-183,598,-90,1027,-543,540,0
221738332,17872,2586,-2554,-0.976367343,0.128606236,0.156800556,0.833438437,-0.520486707,3828,10570,-9578,-25,598,160,1037,-555,533,0
221758332,18617,2283,-6066,-0.981821114,0.097823305,0.144388179,0.838958692,-0.515536774,5134,9518,-15726,276,802,272,1039,-555,528,0
221778332,21857,-1113,-5092,-0.984781729,0.076083358,0.135104368,0.843456002,-0.510083649,11430,2190,-12664,325,922,436,1045,-563,562,0
221798332,26308,-3883,-5045,-0.987723706,0.053224813,0.12355232,0.846124949,-0.508641863,20242,-3726,-11830,159,981,515,1033,-567,578,0
221818332,25653,-2679,-6152,-0.990241999,0.028113028,0.110044795,0.845392384,-0.512859259,18848,-1758,-13216,-102,1103,582,1017,-589,606,0
221838332,25868,-1573,-5686,-0.991996817,0.000371359,0.096107641,0.842339478,-0.520588733,19220,0,-11376,-258,1220,603,1023,-597,630,0
221858332,26418,-1041,-4993,-0.992875051,-0.030668266,0.079238858,0.837660225,-0.530729609,20288,514,-8970,-357,1360,732,1017,-609,651,0
221878332,29325,-2433,1549,-0.992617033,-0.061112331,0.061885443,0.830900259,-0.543485882,26110,-2836,5114,-467,1334,773,1017,-641,707,0
221898332,28493,2737,7581,-0.991307072,-0.08833419,0.045461322,0.819529705,-0.561806099,24486,6966,18072,-741,1210,772,1007,-629,735,0
221918332,23055,11347,14631,-0.989104455,-0.114693079,0.031041297,0.809372926,-0.577288868,13688,23712,-32504,-605,1158,704,997,-651,764,0
221938332,17136,10860,15763,-0.984874912,-0.148139745,0.014973895,0.809455497,-0.57772653,1984,22212,-29140,155,1427,687,999,-683,775,0
221958332,13152,5505,14344,-0.982071733,-0.166073088,-0.010262671,0.817589724,-0.566477576,-5750,10938,-30604,750,1772,632,973,-685,818,0
221978332,8976,-135,18107,-0.977938427,-0.186041536,-0.026441304,0.831856718,-0.544493426,-13932,-1152,-22258,1220,2085,502,947,-741,857,0
221998332,9654,-4002,22359,-0.971465357,-0.216058243,-0.03703493,0.844265504,-0.524936492,-12536,-9218,-13728,1092,1325,266,941,-737,877,0
222018332,12813,-3382,20718,-0.974012431,-0.205129638,-0.033270391,0.844141111,-0.525402242,-6292,-7854,-17380,28,-406,-104,931,-757,869,0
222038332,11135,3227,16326,-0.984815586,-0.145823749,-0.032827014,0.835570529,-0.538771272,-9876,5526,-27224,-626,-1330,-25,941,-763,844,0
222058332,12831,14603,9865,-0.989250725,-0.109366406,-0.044634168,0.837968269,-0.53435977,-6764,27744,23324,346,-1433,489,945,-771,823,0
222078332,19247,15230,2942,-0.99129837,-0.077248413,-0.064029492,0.856625708,-0.50196361,5986,28362,8442,1667,-1171,676,921,-783,816,0
222098332,26699,11417,-3596,-0.992663693,-0.046200799,-0.072719615,0.882124066,-0.454489673,20836,20450,-5644,2284,-1059,250,919,-815,737,0
222118332,25195,7436,-10337,-0.994342146,-0.008561106,-0.065868325,0.905638319,-0.407295473,17774,12712,-20362,2213,-1333,-303,903,-801,676,0
222138332,25238,7431,-8994,-0.993573453,0.061237063,-0.052059999,0.920854423,-0.374189962,17866,13154,-19948,1576,-2700,-487,903,-815,633,0
222158332,25744,11012,-4361,-0.985899663,0.144562421,-0.035962312,0.93059263,-0.351460386,19116,20844,-13404,1146,-3306,-511,889,-795,514,0
222178332,23632,13334,-3265,-0.971344713,0.225378856,-0.021622327,0.942984711,-0.318459943,15370,25958,-13866,1596,-3245,-272,863,-779,495,0
222198332,27736,12286,-4024,-0.953400487,0.293592861,-0.009805488,0.957202395,-0.274094839,24174,24250,-17630,2035,-2785,64,835,-777,393,0
222218332,29701,9802,-4894,-0.933488458,0.35237216,0.004778847,0.968904886,-0.229837628,28762,19762,-21300,2033,-2462,75,845,-767,297,0
222238332,22738,6709,-4253,-0.915103486,0.397769636,0.017078844,0.978409803,-0.185484264,15452,13978,-21520,1978,-1958,266,783,-759,261,0
222258332,20040,3308,-6472,-0.898849832,0.432949087,0.028468351,0.984948082,-0.146145025,10600,7550,-27116,1747,-1559,288,767,-719,220,0
222278332,16107,671,-8330,-0.895792432,0.43950869,0.034246064,0.989346541,-0.116680659,3208,2518,-31758,1286,-1263,303,767,-725,180,0
222298332,9061,-206,-8751,-0.887326047,0.455729447,0.035547851,0.99130784,-0.092824824,-10980,754,-32422,954,-706,416,725,-719,145,0
222318332,2115,2569,-9381,-0.886612974,0.457468502,0.031207348,0.99326412,-0.072160633,-24830,6162,31784,752,-52,582,737,-697,139,0
222338332,1629,4242,-7665,-0.893710978,0.443706717,0.026418469,0.995261826,-0.042526413,-26038,9350,-29866,1071,644,755,741,-695,102,0
222358332,4365,-1280,-7455,-0.906918008,0.415557465,0.029414181,0.996185098,0.000436073,-21014,-1594,-28512,1710,1271,676,753,-685,127,0
222378332,2854,-3559,-6634,-0.921062957,0.381641945,0.042613968,0.995048847,0.039687626,-24498,-5720,-25760,1757,1487,182,755,-685,149,0
222398332,4335,-2051,-3798,-0.930900881,0.352905741,0.067148815,0.99165047,0.076674625,-21858,-1904,-19144,1849,1205,-333,785,-641,126,0
222418332,1956,-3198,-1989,-0.939533383,0.322148977,0.094493706,0.985052556,0.121720491,-26906,-3302,-14516,2193,1203,-383,807,-629,136,0
222438332,1967,2309,1556,-0.952414054,0.271855555,0.118888002,0.973965157,0.178199908,-27324,8510,-5760,2606,1921,-213,821,-547,146,0
222458332,3221,-1499,-2718,-0.955550838,0.240988128,0.15449377,0.951822829,0.255509024,-24938,2054,-13280,3604,860,-519,827,-531,188,0
222478332,15858,-14946,3734,-0.963474082,0.191788699,0.172514159,0.927337585,0.325600183,84,-24258,1232,3183,1604,-20,859,-461,176,0
222498332,32764,-20313,17410,-0.963200167,0.187541455,0.178686998,0.91505276,0.356008036,-31582,30734,28680,1434,-13,47,847,-407,183,0
222518332,12839,4082,2880,-0.968354777,0.188434482,0.146799513,0.925321238,0.343552811,-6000,13378,-376,-665,190,681,849,-423,208,0
222538332,8207,9673,-200,-0.972072044,0.172255751,0.141259297,0.925512591,0.345237728,-15446,23962,-6040,98,727,273,851,-417,199,0
222558332,14951,-6238,1275,-0.973915489,0.150673261,0.152214448,0.913649134,0.371436995,-2050,-7738,-2448,1241,694,76,863,-421,171,0
222578332,19361,-6356,2151,-0.976123391,0.134942709,0.152817491,0.908277903,0.384357117,6732,-7724,-118,648,618,99,883,-377,208,0
222598332,20253,-3349,1861,-0.977413112,0.127645712,0.150532188,0.908677651,0.384271732,8478,-1784,-462,59,357,131,879,-385,247,0
222618332,17537,4392,-749,-0.981312836,0.116263609,0.132784044,0.910784299,0.385729661,2982,13482,-5452,41,346,311,869,-393,239,0
222638332,19342,5879,-4467,-0.983618578,0.101465236,0.127137712,0.9059812,0.398778792,6446,15914,-12254,616,593,331,907,-407,254,0
222658332,23215,-2667,-4541,-0.986787491,0.080027454,0.116766911,0.89867717,0.418137416,14084,-1518,-11696,880,835,537,901,-377,257,0
222678332,24121,-3547,-4173,-0.989874162,0.058899473,0.101985607,0.895470129,0.428877449,15798,-3758,-10270,490,872,672,911,-409,282,0
222698332,24169,-3662,-6915,-0.99262963,0.036975978,0.082764263,0.894729039,0.434531759,15802,-4616,-15034,265,933,832,903,-401,296,0
222718332,25723,-5946,-7074,-0.99456965,0.010346225,0.063682355,0.895476595,0.436198857,18844,-9806,-14476,113,1138,818,933,-427,320,0
222738332,25873,-4900,-8499,-0.995302116,-0.021210054,0.043725736,0.899222359,0.430789277,19114,-8368,-16288,-178,1354,854,925,-427,317,0
222758332,29332,-6188,-4621,-0.994617062,-0.055440981,0.023118434,0.906694496,0.416448321,26056,-11618,-7410,-538,1465,906,945,-451,360,0
222778332,30478,-1701,4382,-0.9923476,-0.088523844,0.003441955,0.918105613,0.391064875,28416,-3290,11688,-987,1419,925,969,-485,389,0
222798332,27466,6262,13119,-0.988911074,-0.119162776,-0.013138508,0.930391867,0.36028745,22506,12092,30168,-1187,1301,857,979,-521,426,0
222818332,22426,11639,21061,-0.984537022,-0.14910141,-0.026867681,0.939477386,0.334939416,12576,22396,-18514,-925,1257,745,965,-541,436,0
222838332,17090,10680,22786,-0.978750728,-0.179568321,-0.042561789,0.943038139,0.322926216,2096,19966,-14066,-314,1295,756,977,-549,481,0
222858332,11091,7519,20424,-0.971224155,-0.211378947,-0.061890062,0.940996666,0.325770339,-9658,13010,-17748,370,1388,784,985,-577,494,0
222878332,8782,-311,17127,-0.969513636,-0.211547518,-0.083626011,0.933220442,0.342948591,-13998,-3396,-23404,940,1312,790,981,-589,522,0
222898332,8932,-2183,17253,-0.972890986,-0.190325577,-0.095249505,0.926066639,0.359071827,-13812,-7616,-23872,806,405,533,995,-603,539,0
222918332,9952,-3464,16525,-0.980530649,-0.146729449,-0.095505948,0.925648738,0.360071985,-12062,-10262,-26792,65,-641,321,989,-609,504,0
222938332,9446,-597,13412,-0.987500854,-0.088908583,-0.097635546,0.929925965,0.348260371,-13380,-4472,30594,-502,-1322,313,997,-601,484,0
222958332,11543,2937,7221,-0.989160318,-0.040192189,-0.114101029,0.929782089,0.343709638,-9322,2258,16312,-124,-1288,582,977,-615,480,0
222978332,16117,5787,2570,-0.987322386,-0.005537191,-0.136170891,0.923194792,0.353486171,-154,7324,5480,539,-1123,678,995,-629,443,0
222998332,21439,5937,1729,-0.985471552,0.029044118,-0.146786839,0.914393416,0.371773718,10570,7078,2520,895,-1246,483,979,-607,393,0
223018332,25057,2471,-1831,-0.983690768,0.066930078,-0.147306494,0.905872803,0.392081007,17866,130,-5842,974,-1371,103,965,-591,380,0
223038332,24916,148,-4724,-0.979991883,0.118602199,-0.140352107,0.90269056,0.401898382,17696,-4290,-13314,520,-2014,-200,971,-563,311,0
223058332,26779,1394,-2444,-0.971017515,0.18565846,-0.131253619,0.90484995,0.400057267,21700,-1506,-10940,33,-2735,-340,933,-545,273,0
223078332,24865,3086,-906,-0.955097936,0.260922126,-0.121372951,0.907511171,0.397046236,18380,2198,-10324,16,-3116,-385,929,-525,215,0
223098336,27969,5802,1021,-0.932418704,0.33669406,-0.113105668,0.908195853,0.397948278,25334,7898,-8956,202,-3182,-270,867,-497,110,0
223118336,28743,7352,-1211,-0.90499809,0.407768022,-0.103723565,0.906870868,0.403550696,27786,11308,-15756,437,-3036,-228,825,-499,93,0
223138336,25329,7275,-3223,-0.8759965,0.469976505,-0.090689963,0.905214906,0.410408055,21916,11578,-21824,565,-2720,-309,747,-469,13,0
223158336,21954,3487,-1972,-0.847223731,0.522876274,-0.075008836,0.901059365,0.422620382,16116,4516,-21064,849,-2357,-253,731,-431,-1,0
223178336,18577,-70,-3400,-0.834095556,0.546019059,-0.059036751,0.901209241,0.425400576,10188,-2118,-25248,541,-1864,-369,643,-419,-56,0
223198336,14144,-1013,-4283,-0.828591662,0.555535903,-0.04754722,0.905275691,0.41817468,1556,-3678,-27384,38,-1341,-409,619,-407,-82,0
223218336,10031,-1286,-5160,-0.816847226,0.572276464,-0.048707329,0.911112372,0.404325735,-6726,-4168,-29064,-465,-792,-273,583,-385,-85,0
223238336,5926,1303,-5730,-0.814069308,0.575104561,-0.06065574,0.917784564,0.387111347,-14832,618,-30304,-811,-147,10,565,-411,-103,0
223258336,4627,3928,-4895,-0.821380109,0.563346636,-0.071019119,0.920882771,0.377823351,-17666,5530,-28248,-486,589,164,553,-425,-119,0
223278336,6374,3746,-3450,-0.838663578,0.537439458,-0.068597899,0.919306517,0.382140271,-14744,5244,-24506,289,1335,62,573,-429,-66,0
223298336,8530,-1748,-5718,-0.861674991,0.500615297,-0.05966434,0.918287102,0.386110475,-11194,-5450,-27832,409,1830,-184,601,-431,-59,0
223318336,10103,-2256,-3348,-0.884138724,0.459913161,-0.055953214,0.92100426,0.380042907,-8786,-6348,-21756,-86,1931,-220,625,-417,-25,0
223338336,8074,969,91,-0.898647578,0.430385729,-0.057758505,0.926173786,0.366837706,-13312,44,-13916,-470,1359,-148,665,-435,-15,0
223358336,5840,-642,3236,-0.908678472,0.408679947,-0.057030071,0.930909216,0.354619488,-18104,-3152,-6916,-392,995,-208,689,-439,26,0
223378336,1035,94,-1648,-0.922621226,0.377022933,-0.049156047,0.932759373,0.350941507,-28176,-1422,-15644,54,1451,-318,699,-429,16,0
223398336,3404,6346,-6591,-0.942190699,0.325796776,-0.040232962,0.930880427,0.357125044,-24092,11372,-23840,454,2296,-206,721,-425,59,0
223418336,7239,9498,16161,-0.940770749,0.331095681,-0.028851,0.922683436,0.379013395,-16572,18498,22072,1285,635,-628,741,-409,98,0
223438336,16067,-10745,6577,-0.951397415,0.300108304,0.003736926,0.907775562,0.414662888,914,-21882,3404,1786,1502,-121,757,-379,83,0
223458336,32764,-23268,19622,-0.954703437,0.289042605,0.014503278,0.905352334,0.419787403,-31296,19476,29774,429,520,-310,755,-325,119,0
223478336,9673,10347,10650,-0.955518693,0.286479279,-0.013700586,0.923120774,0.378875129,-12104,20812,12322,-1785,687,-40,777,-341,137,0
223498336,9947,16328,7992,-0.959005445,0.273792248,-0.02002148,0.934502447,0.349101244,-11548,32000,7022,-1239,570,-73,773,-363,138,0
223518336,9829,7781,4665,-0.960569602,0.266652038,-0.036098789,0.932764295,0.352593666,-11868,14922,718,237,517,65,775,-365,133,0
223538336,15915,2552,3077,-0.963388165,0.25655606,-0.031091098,0.927913284,0.365598317,268,4208,-2316,715,414,-154,771,-357,133,0
223558336,16627,1763,-1814,-0.968313942,0.238497775,-0.025834012,0.921929305,0.381397258,1606,2758,-11774,841,406,-82,763,-329,136,0
223578336,20140,-1208,-5655,-0.969840191,0.23183411,-0.02142059,0.914539842,0.398855193,8486,-3118,-18898,861,359,44,765,-315,140,0
223598336,21207,561,-9203,-0.972683586,0.219483545,-0.021795082,0.909501828,0.410333714,10538,406,-25596,574,580,171,755,-311,142,0
223618336,24907,-4400,-8379,-0.976330711,0.201808749,-0.025482872,0.906651534,0.416393783,17816,-9634,-23366,315,794,246,765,-297,162,0
223638336,25528,-3028,-6355,-0.979750697,0.182669185,-0.03431172,0.908162357,0.412406145,18946,-7180,-18692,-157,839,361,777,-299,161,0
223658336,24955,-540,-9708,-0.983202182,0.158914372,-0.048237357,0.91232557,0.401567942,17682,-2660,-24616,-480,1011,520,785,-315,182,0
223678336,27606,-2555,-10306,-0.986695664,0.128130583,-0.063972037,0.918337116,0.385214876,22864,-7206,-24800,-710,1273,575,795,-329,173,0
223698336,28348,-1247,-7938,-0.989096439,0.092638623,-0.083679483,0.926574314,0.360780274,24266,-5234,-18896,-1045,1422,727,819,-355,224,0
223718336,29671,1361,355,-0.989775755,0.055415444,-0.104369252,0.93669115,0.327391237,26882,-694,-1082,-1392,1438,780,821,-367,229,0
223738336,29166,6722,12044,-0.98874677,0.020756744,-0.12416561,0.94755736,0.286319582,25906,9382,23432,-1670,1268,786,843,-421,276,0
223758336,26630,10102,19072,-0.986220239,-0.011389334,-0.143352162,0.956279291,0.244992821,20918,15518,-26994,-1634,1141,818,867,-459,306,0
223778336,20044,12098,20911,-0.98254039,-0.042547245,-0.161123666,0.961626193,0.21020053,7872,18936,-22300,-1322,1120,807,857,-479,320,0
223798336,12727,7851,21235,-0.978119373,-0.069834176,-0.177640759,0.962936433,0.18997742,-6608,9910,-20768,-693,1047,760,877,-521,369,0
223818336,7888,-1705,22126,-0.972792413,-0.092181908,-0.195538363,0.961659502,0.178534297,-16110,-9780,-18254,-304,910,805,887,-545,368,0
223838336,8239,-7045,25751,-0.970255144,-0.094474519,-0.207049711,0.961661451,0.165190523,-15320,-20828,-10936,-404,49,559,857,-557,416,0
223858336,9212,-8627,23929,-0.971770549,-0.079513984,-0.20668422,0.966339873,0.135222463,-13428,-23980,-15062,-1146,-831,139,845,-593,421,0
223878336,9480,-4510,15499,-0.976832066,-0.033414617,-0.194947237,0.972428672,0.103179028,-12966,-15688,-32590,-1451,-1126,80,831,-587,401,0
223898336,12979,2100,6359,-0.976261627,-0.002495565,-0.201826031,0.973349717,0.078926466,-6030,-2406,13238,-997,-906,397,791,-595,409,0
223918336,18618,4041,1693,-0.972661061,0.021339623,-0.218099044,0.970145769,0.075571265,5354,984,2758,-69,-883,708,783,-599,387,0
223938336,24340,2442,-2688,-0.970035814,0.052539481,-0.225161258,0.968273945,0.079749091,16884,-2434,-7090,243,-1209,335,745,-619,405,0
223958336,28487,-535,-5255,-0.968251234,0.093685595,-0.21981652,0.969471909,0.079466432,25230,-8218,-13568,80,-1663,-177,729,-603,393,0
223978336,28899,-258,-5004,-0.962277258,0.163783517,-0.205370336,0.973505655,0.06661379,26218,-7208,-15336,-371,-2988,-610,697,-595,376,0
223998336,30185,3111,-2779,-0.949078191,0.246709447,-0.183357347,0.97855421,0.052143766,29198,234,-13586,-326,-3537,-960,659,-577,345,0
224018336,28739,2881,-674,-0.927552817,0.32768113,-0.167157861,0.982294759,0.027937364,27014,298,-12036,-677,-3579,-876,623,-551,343,0
224038336,31001,6427,-2600,-0.902591866,0.396264171,-0.15631234,0.984358918,0.012118481,32378,7746,-18156,-357,-3058,-604,567,-545,314,0
224058336,32167,9758,-6421,-0.877608903,0.453247538,-0.144520358,0.986216482,0.006650135,-29990,14792,-27678,86,-2537,-487,555,-549,308,0
224078336,27514,5753,-6300,-0.852447985,0.503926365,-0.127046632,0.988545703,0.006324885,27064,7348,-29098,408,-2265,-588,541,-523,328,0
224098336,22223,2130,-7672,-0.833252326,0.538728697,-0.11149919,0.990427986,0.00164531,17128,612,32546,251,-1595,-595,513,-503,328,0
224118336,13160,-1113,-8852,-0.838187482,0.534105157,-0.097330638,0.992208999,-0.012127148,-652,-5512,29596,-37,-835,-575,517,-487,307,0
224138336,7689,-307,-10431,-0.835261784,0.538889369,-0.094112589,0.991738763,-0.026648059,-12010,-3696,27022,-364,-220,-394,511,-479,329,0
224158336,2882,2289,-10271,-0.841226339,0.52846696,-0.099615553,0.99051002,-0.044461146,-21808,1320,27678,-653,471,-158,507,-467,358,0
224178336,3817,2230,-9252,-0.855930496,0.503390752,-0.103192599,0.989502471,-0.055766739,-20424,1084,30542,-391,1193,-74,549,-455,381,0
224198336,5326,-3355,-7615,-0.870639756,0.476669263,-0.106245619,0.987464204,-0.079938907,-17888,-10186,-30844,-839,1195,-334,547,-461,385,0
224218336,5547,-2195,-2744,-0.881522328,0.454074485,-0.114498552,0.982371777,-0.119752826,-17808,-8136,-20360,-1519,897,-424,569,-437,413,0
224238336,5183,3980,4905,-0.884424802,0.444735235,-0.127837044,0.975192431,-0.157882029,-18632,3780,-4754,-1570,256,-186,571,-447,421,0
224258336,-485,3701,6159,-0.890053995,0.43101736,-0.135221791,0.969787128,-0.182561645,-30144,2984,-1800,-972,524,-142,549,-441,397,0
224278336,-353,4481,4207,-0.902843514,0.404987572,-0.130172686,0.968931207,-0.190528335,-30300,4708,-4852,-126,1198,-283,563,-427,429,0
224298336,-753,5729,-7512,-0.921826204,0.363964191,-0.116182364,0.970848814,-0.189523295,-31734,7658,-26938,350,1911,-464,579,-411,429,0
224318336,-2893,6581,-4587,-0.936509004,0.329719435,-0.098974414,0.974772869,-0.179402087,29046,9922,-19970,732,1619,-463,575,-411,453,0
224338336,3226,-511,1198,-0.944768824,0.311393946,-0.076475944,0.981373271,-0.152820366,-24524,-3528,-7798,1423,967,-469,577,-385,455,0
224358336,23125,-7717,1285,-0.951844979,0.29079557,-0.068392529,0.984892812,-0.133089343,15048,-17676,-6952,954,1000,-29,573,-363,456,0
224378336,31100,-16467,19157,-0.95595267,0.278517289,-0.060903501,0.984646708,-0.138099581,30870,30606,29190,-29,566,-309,579,-355,474,0
224398336,31892,3334,27816,-0.956580212,0.276926583,-0.058362627,0.979649305,-0.170331631,32428,4756,-18974,-1164,43,-425,537,-339,444,0
224418336,15465,20904,14807,-0.957589142,0.273803793,-0.05641896,0.97283873,-0.205697596,-462,-25576,20650,-1304,103,-435,531,-333,427,0
224438336,9290,20529,-7457,-0.961249078,0.262012197,-0.048554359,0.97530302,-0.195796061,-12924,-26068,-23500,564,575,-157,537,-325,424,0
224458336,12776,8767,-20690,-0.966126382,0.244782329,-0.038986351,0.984000824,-0.149551006,-6132,16258,16152,2027,867,144,537,-307,424,0
224478336,29997,-10486,-18241,-0.970000535,0.228761701,-0.039473722,0.989627875,-0.107688965,28190,-22266,21570,1747,791,463,539,-279,446,0
224498336,32764,-16246,-11030,-0.974576253,0.206039928,-0.048931292,0.989242667,-0.107404256,-31950,31442,-28806,7,998,418,525,-275,453,0
224518336,31004,-5551,-10347,-0.97790014,0.184698401,-0.064303102,0.983649917,-0.143640848,29946,-13208,-26732,-1498,846,365,527,-273,444,0
224538336,28936,4855,-7062,-0.981476586,0.157090507,-0.079565728,0.974760428,-0.188351238,25684,7104,-19250,-1850,1054,339,537,-301,467,0
224558336,29125,6162,-1596,-0.984483069,0.122533184,-0.099479362,0.964898145,-0.225492263,25966,9068,-7186,-1575,1327,628,547,-335,460,0
224578336,30926,5071,6341,-0.985755771,0.086177777,-0.121594773,0.95359461,-0.259753022,29526,6164,9880,-1466,1375,784,577,-347,470,0
224598336,28286,8850,12536,-0.984934848,0.052750971,-0.144238362,0.939624401,-0.295984911,24270,12986,23368,-1554,1211,852,581,-401,507,0
224618336,21638,13678,17100,-0.982933879,0.019258227,-0.16465677,0.926129162,-0.326325271,11046,21982,-31950,-1287,1216,826,593,-411,538,0
224638336,15538,8106,16897,-0.9794778,-0.017307909,-0.183974633,0.917474203,-0.340207161,-1038,10216,-31160,-568,1447,827,611,-427,534,0
224658336,9036,-841,16642,-0.976290738,-0.028791208,-0.198858967,0.916063746,-0.335724616,-13870,-8286,-30412,40,1635,811,613,-437,555,0
224678336,8559,-13413,23297,-0.971887473,-0.048807241,-0.215994223,0.912094742,-0.336272294,-14738,31688,-17338,35,875,738,639,-455,567,0
224698336,12153,-19067,22187,-0.970796788,-0.044147629,-0.221924834,0.895732576,-0.373896081,-7522,20186,-19698,-1573,-508,367,627,-473,566,0
224718336,9726,-10561,18155,-0.971369248,-0.034548523,-0.221664481,0.868108165,-0.434131475,-12418,-28334,-28052,-2607,-959,146,619,-483,535,0
224738336,8281,-3602,9257,-0.97119363,-0.023014862,-0.223772771,0.833356401,-0.496007184,-15314,-14484,19320,-2803,-1078,220,631,-507,506,0
224758336,10461,144,4049,-0.968954315,-0.008315865,-0.23515581,0.802239658,-0.540167738,-10858,-7354,8400,-2100,-1075,547,581,-539,505,0
224778336,16411,609,-485,-0.96741372,0.00830218,-0.241772715,0.780279383,-0.5685199,1152,-6826,-1262,-1365,-1046,561,593,-581,493,0
224798336,18901,-917,-4216,-0.967251694,0.023995316,-0.242037836,0.761808487,-0.593087096,6166,-9956,-9444,-1097,-1208,371,559,-591,494,0
224818336,21737,-3272,-8494,-0.96667397,0.054758009,-0.239360731,0.749408664,-0.609419512,11780,-14316,-18766,-751,-1438,-99,541,-629,510,0
224838336,22787,-3615,-7636,-0.965005973,0.102697274,-0.230598033,0.73860248,-0.625618199,13926,-14726,-18614,-675,-2138,-376,511,-625,472,0
224858336,24319,-2144,-5226,-0.960098784,0.161798498,-0.217071586,0.727631506,-0.642729118,17136,-11354,-15718,-662,-2599,-613,489,-637,470,0
224878336,23166,-437,-3524,-0.951350983,0.222243441,-0.202135391,0.712379217,-0.664087452,15112,-7462,-14298,-841,-2707,-760,485,-637,465,0
224898336,24636,-573,-3736,-0.939770909,0.278408242,-0.186614032,0.692057705,-0.689325128,18432,-7234,-16560,-1030,-2575,-902,467,-645,441,0
224918336,28154,2845,-3064,-0.924694743,0.333657218,-0.171297209,0.672688365,-0.711849684,25962,100,-17032,-872,-2526,-924,455,-647,446,0
224938336,29526,4113,-2287,-0.905858485,0.390059616,-0.152700916,0.651994405,-0.734846625,29324,3236,-17328,-807,-2597,-1121,455,-655,445,0
224958336,25883,109,8,-0.884021655,0.443367943,-0.135297948,0.631253613,-0.756000901,22758,-4206,-14490,-712,-2485,-1105,433,-667,439,0
224978336,20608,813,-1659,-0.862459188,0.487418121,-0.123559353,0.609763075,-0.775389601,12926,-2416,-19274,-734,-2111,-932,433,-671,424,0
224998336,19744,1597,-2448,-0.850857588,0.51030319,-0.113300934,0.584721232,-0.796782637,11904,-522,-22120,-782,-1902,-942,427,-661,424,0
225018336,18833,2325,-1856,-0.842554841,0.52601447,-0.103391079,0.555767002,-0.818467157,10346,1306,-21440,-866,-1559,-1078,455,-667,415,0
225038340,18823,4650,-2493,-0.840946048,0.528923241,-0.101658231,0.523681186,-0.839473993,10384,6130,-22826,-1031,-983,-981,433,-679,420,0
225058340,14005,5318,-3945,-0.844926635,0.520962453,-0.109263989,0.491787214,-0.857539374,642,7324,-25540,-1094,-566,-726,447,-677,419,0
225078340,8931,6740,-4632,-0.844150705,0.520817315,-0.113955734,0.463881394,-0.871363023,-9822,9754,-26320,-1106,-87,-462,447,-685,433,0
225098340,5074,8666,-4212,-0.852770589,0.506481931,-0.113964319,0.447697885,-0.879752286,-17804,13606,-25020,-554,653,-344,471,-675,428,0
225118340,4187,6258,-4509,-0.87032697,0.477174951,-0.106456423,0.446083043,-0.881455177,-20158,9034,-24648,153,1440,-270,467,-685,464,0
225138340,5405,1768,-4695,-0.892023887,0.437330388,-0.096016798,0.452929731,-0.879104236,-18440,392,-23710,533,1937,-205,487,-667,443,0
225158340,7892,743,-2182,-0.910425128,0.398694849,-0.089998278,0.45748261,-0.877416559,-14066,-1460,-17420,359,1818,-102,479,-655,497,0
225178340,7825,991,754,-0.921957638,0.371933989,-0.086328253,0.454519914,-0.879394362,-14568,-844,-10676,6,1226,-154,497,-663,502,0
225198340,8206,130,1461,-0.932314795,0.347369298,-0.075642418,0.450080872,-0.882602371,-14148,-2214,-8454,29,1121,-447,503,-663,503,0
225218340,4749,5086,10047,-0.943956029,0.317586204,-0.059108017,0.458211955,-0.879711039,-21446,8236,9694,630,1377,-480,507,-661,526,0
225238340,7644,4424,-1314,-0.956467316,0.281922905,-0.029968048,0.485958591,-0.866309421,-16082,7866,-11846,1626,1644,-719,521,-655,518,0
225258340,15957,-1144,-884,-0.970181277,0.23198965,-0.005448758,0.521841725,-0.846093763,158,-2540,-9620,1936,1835,-399,535,-629,552,0
225278340,25914,-6703,13783,-0.974310204,0.21301242,-0.000699431,0.533827677,-0.838178672,19888,-13428,20594,687,851,-23,545,-639,564,0
225298340,17619,4392,3831,-0.977920115,0.19382935,-0.024962175,0.520717323,-0.84598083,3176,8174,1332,-673,861,630,543,-621,561,0
225318340,16803,12600,636,-0.982149256,0.168790055,-0.036273791,0.510716008,-0.851720976,1416,24012,-4256,-462,1069,406,525,-647,549,0
225338340,14780,2974,-2297,-0.987345845,0.131796805,-0.04671413,0.519926935,-0.845928462,-2768,4566,-9184,498,1243,347,549,-641,576,0
225358340,21209,-5891,-2928,-0.990425073,0.101779949,-0.051960567,0.526648812,-0.841214184,9950,-13484,-9178,385,1303,287,507,-639,585,0
225378340,19181,-1644,-3180,-0.993037213,0.067714956,-0.056805646,0.518673789,-0.846013088,5840,-5286,-8800,-310,1139,373,535,-649,602,0
225398340,20995,-2892,-3111,-0.993342968,0.044267302,-0.069109374,0.505293457,-0.852776889,9424,-8048,-7660,-557,974,506,521,-637,644,0
225418340,19948,1475,-4426,-0.993289171,0.017667603,-0.080539663,0.488483129,-0.861637542,7338,314,-9424,-704,1077,481,539,-663,632,0
225438340,18499,3847,-4538,-0.992005525,-0.018312821,-0.09459642,0.470457898,-0.870345119,4468,4700,-8680,-707,1184,484,533,-667,646,0
225458340,16867,2909,-3578,-0.989055604,-0.055338804,-0.108155771,0.455444181,-0.876569668,1294,2336,-5478,-539,1320,542,525,-673,668,0
225478340,16869,1072,-1987,-0.985230628,-0.088331942,-0.119494303,0.440314349,-0.882763509,1440,-1784,-1080,-542,1319,572,529,-671,702,0
225498340,16852,840,-643,-0.981023677,-0.117277421,-0.127912811,0.424575552,-0.889196165,1562,-2580,2646,-572,1261,553,527,-685,686,0
225518340,14394,1767,1322,-0.976994522,-0.140192702,-0.135460186,0.406894796,-0.896423295,-3202,-904,7474,-680,1180,468,513,-689,724,0
225538340,14281,2391,2061,-0.972912256,-0.157883275,-0.144120501,0.390423412,-0.902211012,-3286,102,9596,-621,1056,475,511,-693,766,0
225558340,13951,2027,2317,-0.969889598,-0.169400753,-0.151400371,0.379203387,-0.90588668,-3826,-890,10506,-398,862,424,503,-693,769,0
225578340,13774,1706,2122,-0.966989219,-0.179450527,-0.158145338,0.374124587,-0.906869546,-4078,-1774,10444,-129,841,390,515,-707,767,0
225598340,13336,1110,2139,-0.964254998,-0.188057754,-0.164719881,0.371836163,-0.906684849,-4850,-3226,10774,1,821,421,503,-699,781,0
225618340,14581,-379,890,-0.961174281,-0.199883306,-0.168585852,0.371986864,-0.905927975,-2254,-6438,8580,120,874,425,493,-701,792,0
225638340,14723,351,338,-0.958013898,-0.212757681,-0.170612539,0.36976607,-0.906469483,-1874,-5000,7876,-5,871,319,489,-715,817,0
225658340,14656,1550,-451,-0.955517367,-0.222909428,-0.17129203,0.365829721,-0.907884188,-1946,-2548,6588,-100,689,191,491,-697,824,0
225678340,16686,4866,-1010,-0.952472273,-0.231832387,-0.176243083,0.359968483,-0.909286976,2182,4094,5746,-176,602,170,475,-707,812,0
225698340,16897,4065,-1003,-0.950629236,-0.235925267,-0.180397346,0.358072259,-0.909140963,2672,2306,5898,-1,437,162,471,-719,835,0
225718340,17751,4762,-1723,-0.948250752,-0.242027495,-0.185280284,0.357357007,-0.908622716,4452,3562,4624,56,489,152,477,-717,856,0
225738340,18166,3505,-2248,-0.945928775,-0.248229183,-0.188471695,0.360276818,-0.906706467,5366,872,3766,217,511,133,467,-719,849,0
225758340,18572,4809,-2950,-0.942748159,-0.256409794,-0.193690532,0.363638524,-0.90439979,6268,3368,2602,249,568,138,471,-721,837,0
225778340,20344,3771,-1914,-0.938438045,-0.268398831,-0.198201341,0.367449995,-0.901901908,9934,1090,4970,305,617,166,457,-715,857,0
225798340,20934,5112,101,-0.93431277,-0.279330352,-0.202435193,0.370326323,-0.899804378,11250,3636,9356,263,564,163,453,-733,857,0
225818340,20154,5998,1896,-0.929604582,-0.290220233,-0.208346797,0.37523476,-0.896351548,9842,5218,13308,376,594,198,461,-731,856,0
225838340,21279,4233,3832,-0.924609257,-0.299963508,-0.217055902,0.38556681,-0.890084462,12258,1410,17494,652,605,225,443,-733,864,0
225858340,22490,4891,6371,-0.920427594,-0.305613497,-0.226764924,0.401977982,-0.880395869,14812,2414,22764,933,508,171,439,-755,853,0
225878340,20910,6149,8999,-0.920704938,-0.299570547,-0.233832362,0.421099178,-0.869611489,11644,4706,27818,1014,19,31,445,-745,832,0
225898340,22847,8182,12303,-0.92570336,-0.280042598,-0.238574868,0.444646854,-0.856548283,15352,8620,-31742,1177,-523,-110,457,-761,862,0
225918340,25024,856,7887,-0.936567532,-0.24545064,-0.235045845,0.471721534,-0.843132444,19346,-5920,23830,1221,-1169,-437,451,-759,801,0
225938340,27839,2913,-4469,-0.944171321,-0.226259042,-0.223315735,0.493892884,-0.833434032,24730,-1430,-1514,907,-572,-665,463,-755,808,0
225958340,24849,7534,-7142,-0.955326414,-0.196161831,-0.203348127,0.507611247,-0.830163706,18380,8450,-7844,432,-1150,-872,475,-755,778,0
225978340,24120,6475,-7522,-0.96702107,-0.156709054,-0.181255597,0.515025474,-0.830591405,16532,7040,-9888,159,-1593,-890,469,-753,780,0
225998340,25327,5908,-8474,-0.977429334,-0.107296394,-0.161008991,0.51588852,-0.834187979,18602,6560,-13406,-81,-2033,-770,489,-745,752,0
226018340,21985,8153,-10177,-0.984622974,-0.051662005,-0.144647058,0.517281553,-0.836238997,11674,11580,-18630,28,-2249,-625,491,-751,761,0
226038340,18825,11593,-8431,-0.987748923,0.015287813,-0.132686921,0.523295885,-0.834466387,5244,18846,-17326,314,-2661,-451,511,-743,721,0
226058340,19898,12549,-5829,-0.98543174,0.088701425,-0.122547376,0.535348685,-0.828367803,7458,21088,-14522,646,-2884,-347,513,-729,686,0
226078340,19690,12578,-4943,-0.977529794,0.163013896,-0.110969085,0.551081162,-0.819679633,7300,21522,-15186,861,-2919,-338,515,-733,647,0
226098340,17122,11655,-3996,-0.96498902,0.233046314,-0.096964822,0.569390664,-0.808926696,2578,20134,-15594,1038,-2764,-349,491,-729,623,0
226118340,13433,10323,-4106,-0.952335011,0.28074236,-0.098599705,0.590981882,-0.793536918,-4294,17926,-17818,1320,-2406,-209,503,-721,580,0
226138340,11373,8498,-3701,-0.940961134,0.316879062,-0.100124754,0.615744922,-0.774587939,-8008,14214,-18232,1510,-1966,-84,495,-739,558,0
226158340,11537,6719,-4668,-0.931209035,0.345307574,-0.09845485,0.643636415,-0.751996512,-7298,10610,-21188,1705,-1751,31,485,-727,515,0
226178340,12214,5323,-5424,-0.921991622,0.37093034,-0.093243193,0.669354437,-0.730200816,-5588,7890,-23598,1637,-1735,29,469,-729,507,0
226198340,11085,2821,-5576,-0.905064587,0.412761709,-0.080639015,0.69158705,-0.709634693,-7526,3000,-24654,1399,-1660,45,453,-725,451,0
226218340,9682,955,-5364,-0.888134792,0.449784677,-0.072243267,0.706967013,-0.695403242,-9754,-456,-25460,997,-1541,97,447,-709,452,0
226238340,6978,3020,-5992,-0.87016657,0.483743422,-0.073021389,0.715109147,-0.686968245,-14574,3650,-27828,488,-1475,290,429,-713,395,0
226258340,4885,4104,-4078,-0.85103227,0.515556972,-0.081728432,0.72622467,-0.674237313,-18132,5532,-25042,497,-1404,689,423,-715,392,0
226278340,4609,3610,-2696,-0.833164487,0.543274431,-0.087106289,0.743288796,-0.654709326,-18100,4368,-23188,859,-1201,782,395,-717,392,0
226298340,6034,894,-799,-0.81954401,0.564531131,-0.082095493,0.765375309,-0.629697995,-14802,-900,-20090,1322,-861,621,391,-721,378,0
226318340,6744,-1237,-493,-0.812417472,0.576487234,-0.069257019,0.786390778,-0.604974885,-13146,-4740,-19872,1461,-412,362,367,-703,348,0
226338340,5763,-732,-925,-0.812816635,0.577382041,-0.055742996,0.803169712,-0.584048944,-15116,-3290,-20768,1284,101,218,359,-701,326,0
226358340,4499,2387,1256,-0.819453903,0.569062544,-0.042086593,0.82044217,-0.560915299,-17864,3394,-16132,1359,544,257,379,-691,310,0
226378340,5593,2575,2194,-0.828979362,0.556148373,-0.023772009,0.842441114,-0.528815115,-15994,4370,-13828,1805,755,312,359,-677,327,0
226398340,7079,4660,1423,-0.847453976,0.527869066,0.003676957,0.868932957,-0.484764436,-13648,9440,-14432,2441,1448,231,357,-663,300,0
226418340,15517,7467,20103,-0.858788343,0.507103538,0.045293604,0.901386114,-0.419536639,2838,16420,23620,3490,940,123,387,-617,308,0
226438340,32758,-21907,3051,-0.877080806,0.468193524,0.089186089,0.92994139,-0.343805106,-28836,24650,-9196,3820,1580,85,373,-609,283,0
226458340,28922,-5982,5228,-0.891620606,0.434372358,0.11210109,0.942599095,-0.30035405,28598,-8296,-3760,2140,1369,41,381,-539,292,0
226478340,12241,6289,3700,-0.90813861,0.400283039,0.105008982,0.951414008,-0.27418034,-5194,16532,-5784,1234,1335,180,415,-519,278,0
226498340,14184,-510,-1006,-0.9292873,0.349182829,0.102725852,0.962022074,-0.237546094,-1946,2398,-13828,1465,1630,637,421,-517,273,0
226518340,15413,-7265,-281,-0.943215005,0.305283558,0.112723206,0.967776336,-0.207233507,-48,-11160,-10836,1222,1455,430,417,-499,284,0
226538340,19313,-5255,2310,-0.951937024,0.274314841,0.11743921,0.971139114,-0.18772544,7444,-6812,-4512,827,1091,254,429,-501,290,0
226558340,18408,-1872,-456,-0.961020384,0.242551409,0.113138817,0.974263484,-0.174709031,5386,-38,-9114,531,1010,335,449,-505,264,0
226578340,18074,-2412,1156,-0.967658136,0.21571721,0.109224515,0.976338424,-0.164702475,4458,-1274,-4900,414,953,312,443,-489,312,0
226598340,19151,-3346,1711,-0.973121803,0.192223333,0.103614847,0.978344986,-0.156310031,6420,-3368,-2976,346,873,414,469,-481,310,0
226618340,17005,-2278,1965,-0.977525737,0.173526479,0.093752703,0.979577761,-0.154548051,1974,-1500,-1772,78,805,462,469,-493,302,0
226638340,16167,891,1573,-0.982031353,0.154329589,0.078166295,0.981236048,-0.15267613,168,4470,-1962,82,776,519,475,-515,342,0
226658340,17152,535,181,-0.986745052,0.128765754,0.062375088,0.983563028,-0.144936994,1984,3206,-3970,317,941,606,489,-505,321,0
226678340,17032,-1256,-1377,-0.990848074,0.098098403,0.051848699,0.986151442,-0.13191314,1604,-834,-6138,557,1061,552,475,-499,344,0
226698340,17216,-2548,-1831,-0.993624818,0.066383407,0.045152034,0.988183066,-0.11812287,1866,-3716,-5996,600,1114,480,489,-499,361,0
226718340,16639,-2599,-1533,-0.995374162,0.035124747,0.037737913,0.989832666,-0.106170671,650,-4074,-4332,539,1154,507,483,-507,349,0
226738340,16517,-2730,-1811,-0.996206863,0.00331272,0.029349085,0.991173789,-0.09665215,378,-4630,-3834,460,1196,551,509,-497,374,0
226758340,15869,-2470,-1858,-0.995878883,-0.028669387,0.020502022,0.992056232,-0.089488812,-912,-4400,-2854,378,1240,557,517,-509,384,0
226778340,15747,-4301,-1238,-0.994463345,-0.060283769,0.015117176,0.992603341,-0.084646929,-1106,-8350,-510,302,1314,552,511,-503,383,0
226798340,16768,-4539,-1282,-0.99210879,-0.09075609,0.010903381,0.992760181,-0.08361781,1016,-8966,432,160,1309,512,521,-501,412,0
226818340,13971,-1518,-172,-0.989317574,-0.116875906,0.004945771,0.992292054,-0.089181472,-4472,-2976,3594,-106,1248,430,541,-517,431,0
226838340,14446,-361,1363,-0.986375496,-0.139158502,-0.002876435,0.9916621,-0.095916107,-3406,-844,7520,-144,1249,428,547,-533,439,0
226858340,15600,60,2093,-0.983645519,-0.156386742,-0.011651452,0.990840368,-0.103019014,-996,-268,9596,-155,1108,447,561,-539,444,0
226878340,15551,2130,3026,-0.981354892,-0.168753162,-0.023937671,0.98973217,-0.111149693,-1000,3586,11928,-193,987,457,545,-547,467,0
226898340,14583,2109,2984,-0.978675416,-0.181650089,-0.035786783,0.988734689,-0.116793014,-2844,3150,12286,-96,1036,430,575,-543,466,0
226918340,15240,695,1565,-0.97477367,-0.199044058,-0.044798249,0.988558268,-0.114593986,-1412,-76,9952,219,1150,382,563,-557,483,0
226938340,14897,1334,-174,-0.969193704,-0.222603688,-0.05347028,0.989044778,-0.107048923,-1928,954,7158,434,1308,276,573,-551,490,0
226958344,13766,2881,362,-0.963252854,-0.243842648,-0.065005681,0.989737991,-0.09357688,-3986,3774,8980,661,1304,198,565,-553,480,0
226978344,15753,562,-1607,-0.954935219,-0.272332404,-0.073751134,0.990968911,-0.073328005,252,-1330,5890,969,1529,213,577,-557,516,0
226998344,15723,187,-2881,-0.94540347,-0.301457489,-0.081007466,0.99160875,-0.055133231,496,-2348,4250,884,1515,191,573,-549,517,0
227018344,16256,-829,-2665,-0.936060455,-0.328092176,-0.084866323,0.991984513,-0.041854206,1896,-4568,5590,674,1459,177,581,-537,536,0
227038344,17575,-2714,-3273,-0.927961752,-0.350822452,-0.082242193,0.992462909,-0.036288375,4812,-8344,5112,335,1266,129,569,-545,556,0
227058344,15527,546,-4028,-0.91963041,-0.3717818,-0.0824335,0.992457176,-0.035304124,962,-1654,4252,128,1133,94,585,-549,593,0
227078344,14284,2732,-2338,-0.91267545,-0.388031529,-0.08375717,0.992166994,-0.039075766,-1262,2826,8260,-113,1045,43,603,-537,587,0
227098344,15256,2599,-2182,-0.904704425,-0.405744031,-0.086600337,0.992004901,-0.038717577,966,2444,9184,74,1174,57,615,-551,601,0
227118344,16140,2480,-1004,-0.897604391,-0.42022267,-0.090055802,0.991730876,-0.036756583,3008,2078,12098,137,1162,77,599,-539,599,0
227138344,17104,2879,-265,-0.891635956,-0.431668092,-0.094801529,0.991428683,-0.033407511,5162,2736,13992,201,1097,86,583,-545,615,0
227158344,17853,3927,712,-0.888915341,-0.43556834,-0.102420082,0.99093955,-0.026137143,6770,4628,16114,362,837,74,587,-537,613,0
227178344,17468,3843,2718,-0.89085165,-0.429332949,-0.111463112,0.990230881,-0.014119685,5974,4162,20004,542,517,52,585,-547,625,0
227198344,25058,2431,1981,-0.888601445,-0.431576081,-0.120720975,0.989318967,-0.002283096,20996,914,18102,677,229,169,595,-553,641,0
227218344,24920,6430,2965,-0.891566791,-0.423018331,-0.128769339,0.988257624,0.011769479,20622,8652,19794,734,-243,88,587,-539,627,0
227238344,22522,10425,8289,-0.901780909,-0.397535669,-0.139345987,0.986693542,0.022956442,15488,16298,29612,674,-1011,239,579,-555,631,0
227258344,18884,12787,7105,-0.91379673,-0.364084387,-0.152814678,0.984387569,0.035678705,7814,20582,26156,771,-1327,344,561,-529,589,0
227278344,19955,9829,3048,-0.925756572,-0.322294535,-0.174278643,0.979614209,0.062311437,9552,13972,16688,1408,-1549,472,547,-529,562,0
227298344,24671,6031,-3375,-0.936462089,-0.273360671,-0.200395805,0.969940737,0.116456999,18614,5530,2262,2524,-1584,367,557,-509,546,0
227318344,27466,5190,-10198,-0.944326922,-0.22914112,-0.219419036,0.955779528,0.183166957,23940,3238,-12828,2954,-1212,64,529,-501,512,0
227338344,27723,6560,-15282,-0.952800605,-0.187964756,-0.222707292,0.943637107,0.235758957,24192,5876,-24368,2249,-1203,-306,517,-493,497,0
227358344,26027,1824,-13480,-0.963905863,-0.138637811,-0.211342861,0.936089369,0.273577912,20440,-3232,-22386,1540,-1701,-681,503,-463,497,0
227378344,23854,-4107,-11665,-0.974413972,-0.081889935,-0.192095554,0.931089204,0.303119592,15744,-14476,-20608,1186,-2085,-874,507,-453,459,0
227398344,22058,-3983,-10435,-0.981226237,-0.025190447,-0.172980711,0.930549333,0.31595136,11932,-13610,-20014,537,-2208,-765,477,-421,464,0
227418344,20211,-920,-10367,-0.983570587,0.030428454,-0.159178745,0.935058516,0.309653923,8162,-7038,-21704,-222,-2290,-518,459,-405,452,0
227438344,17694,1070,-9747,-0.984036356,0.070395945,-0.146344121,0.942804486,0.292757807,3174,-2708,-22314,-531,-2369,-433,465,-405,437,0
227458344,14427,1297,-9702,-0.982785659,0.103403192,-0.135643124,0.949790968,0.274665993,-3304,-1868,-23388,-556,-2178,-420,443,-403,414,0
227478344,11031,949,-8851,-0.981416894,0.128216846,-0.124288658,0.957098927,0.253576778,-10024,-2184,-22576,-656,-1939,-495,429,-389,437,0
227498344,9467,232,-7636,-0.97614995,0.169355331,-0.113648827,0.963463549,0.231749436,-13094,-3256,-20788,-789,-1733,-523,411,-381,396,0
227518344,8517,1172,-7149,-0.970027249,0.206594346,-0.104973486,0.969671242,0.208286485,-14774,-1092,-21052,-823,-1596,-487,413,-397,396,0
227538344,7715,1025,-6701,-0.963348748,0.238959422,-0.098564698,0.974565484,0.187115114,-16152,-1176,-21222,-722,-1386,-409,391,-401,398,0
227558344,8428,707,-6436,-0.957015608,0.265416022,-0.093153948,0.978539916,0.167677863,-14518,-1636,-21560,-645,-1133,-374,381,-381,399,0
227578344,9156,1679,-5687,-0.951271283,0.287257446,-0.088335677,0.981770184,0.150476806,-12868,466,-20782,-547,-933,-343,383,-377,377,0
227598344,9297,2264,-5058,-0.946308274,0.304765774,-0.083509623,0.984349307,0.135284042,-12422,1794,-20098,-461,-741,-330,369,-371,354,0
227618344,8462,1409,-3697,-0.941305989,0.320861083,-0.080239411,0.986657517,0.118988743,-13928,190,-17904,-515,-685,-294,363,-379,383,0
227638344,7569,1809,-2504,-0.93611607,0.336442202,-0.077699491,0.988824159,0.100728244,-15544,1074,-16028,-594,-673,-301,355,-367,363,0
227658344,9094,2058,-115,-0.932064829,0.348431434,-0.074072556,0.99066926,0.083331352,-12360,1692,-11646,-538,-517,-340,355,-373,352,0
227678344,11034,2597,1845,-0.929830438,0.354873611,-0.071301986,0.991749933,0.07079844,-8406,2860,-7936,-363,-261,-244,331,-363,370,0
227698344,13925,2660,2968,-0.930243056,0.352968743,-0.075941357,0.992127996,0.060630826,-2588,2942,-5774,-308,-87,-48,341,-369,355,0
227718344,16817,2803,3337,-0.929658514,0.352620041,-0.0841578,0.991975423,0.050715886,3218,2928,-5034,-365,-171,125,331,-371,348,0
227738344,16867,2678,5362,-0.928104494,0.354127219,-0.093962026,0.991719518,0.032886073,3318,2298,-896,-730,-113,138,339,-367,358,0
227758344,18024,2890,8126,-0.920700859,0.369704299,-0.106910167,0.990905771,0.003555713,5860,2294,4154,-1215,-757,88,327,-391,333,0
227778344,17416,3814,10653,-0.911506997,0.386165654,-0.126388213,0.987841198,-0.035924176,4942,3496,8664,-1707,-900,165,349,-385,340,0
227798344,17939,5474,12150,-0.90527552,0.39400081,-0.146071469,0.982913187,-0.074227327,6196,6178,11398,-1672,-561,164,305,-397,352,0
227818344,-3270,7362,14268,-0.883650377,0.428031325,-0.180132114,0.971353225,-0.129483717,29580,9240,15276,-2539,-913,-140,299,-417,318,0
227838344,13321,15056,-1361,-0.898513304,0.383823333,-0.204703143,0.96404233,-0.147618536,-2794,24036,-15630,-657,1442,-14,311,-427,318,0
227858344,27238,13546,12614,-0.902256012,0.38222429,-0.189962971,0.968632102,-0.135665225,24902,20904,12708,776,279,-316,327,-403,316,0
227878344,22592,2395,9323,-0.910520811,0.368700132,-0.176341756,0.972601108,-0.125376532,15342,-958,6566,696,778,-306,331,-381,340,0
227898344,14248,7387,-3899,-0.932702268,0.311504235,-0.170653103,0.974529199,-0.120950375,-1972,9510,-18476,577,2012,-428,359,-389,347,0
227918344,8834,3708,-9384,-0.951332372,0.257832421,-0.156112131,0.979631618,-0.09878806,-13330,2512,-28000,1356,1533,-434,363,-369,384,0
227938344,17503,-7622,-8552,-0.9561563,0.243140919,-0.147477222,0.982856417,-0.072375419,3650,-20062,-25054,1197,867,-31,367,-343,383,0
227958344,19877,-9595,-6534,-0.959788484,0.226984357,-0.149063038,0.982074931,-0.078598872,8298,-24056,-20504,-184,695,45,393,-337,378,0
227978344,17995,-2532,-6106,-0.967901817,0.192376887,-0.146125443,0.979741272,-0.109974571,4406,-10080,-18986,-1106,711,-30,393,-347,380,0
227998344,16015,3071,-3701,-0.972300004,0.162175773,-0.15286902,0.974034294,-0.145048648,212,1192,-13074,-1312,636,8,417,-353,369,0
228018344,16015,2306,-3289,-0.975909924,0.131131982,-0.158678509,0.968494877,-0.17237914,82,-576,-11184,-1014,768,123,415,-363,396,0
228038344,16623,642,-2441,-0.979006439,0.10112986,-0.160262944,0.963267386,-0.197115242,1196,-4060,-8424,-921,834,130,405,-363,382,0
228058344,16417,1902,-1725,-0.98082003,0.072310552,-0.164166319,0.956018783,-0.22652743,702,-1600,-5984,-1130,824,154,423,-385,397,0
228078344,16132,4176,-1714,-0.980983514,0.043350941,-0.172301649,0.946165312,-0.258764394,96,2810,-4980,-1270,839,196,415,-377,403,0
228098344,15306,4816,-1657,-0.980220502,0.014695613,-0.18070463,0.93621942,-0.28723361,-1542,3860,-3902,-1124,877,198,449,-389,399,0
228118344,14839,5400,-1077,-0.978539908,-0.011955427,-0.189729031,0.926812109,-0.310979404,-2426,4772,-1810,-940,892,215,427,-409,391,0
228138344,15377,4712,-1369,-0.976068152,-0.039523074,-0.198090816,0.91952779,-0.326810861,-1260,3068,-1480,-609,1004,281,437,-411,417,0
228158344,16414,3163,-1268,-0.973740723,-0.061962087,-0.203446135,0.914374134,-0.337740997,912,-300,-506,-394,879,291,445,-423,420,0
228178344,14827,1681,-156,-0.971686706,-0.084786393,-0.20459737,0.909883812,-0.348833032,-2168,-3386,2542,-409,991,239,463,-417,440,0
228198344,16009,2397,969,-0.96973926,-0.102237465,-0.205650545,0.904185029,-0.362677429,266,-1950,5446,-554,846,216,459,-435,456,0
228218344,17885,2829,2395,-0.968209611,-0.114692036,-0.206059822,0.899034986,-0.374909395,4078,-1090,8788,-507,751,181,457,-427,431,0
228238344,16286,1928,2318,-0.967245759,-0.125727216,-0.204170168,0.894584483,-0.386456791,926,-2864,9016,-480,724,136,461,-425,448,0
228258344,15823,2498,2360,-0.965991754,-0.1368935,-0.202540899,0.889187803,-0.399321811,36,-1634,9482,-553,738,114,479,-439,467,0
228278344,16021,3545,2666,-0.964453753,-0.147089014,-0.202690275,0.882679526,-0.413403401,476,514,10450,-619,711,128,479,-435,471,0
228298344,15719,3871,2465,-0.962536933,-0.158816809,-0.202840507,0.87596871,-0.4273067,-66,1184,10434,-621,779,106,471,-445,470,0
228318344,16424,4075,1026,-0.960108601,-0.17163557,-0.203462729,0.870068781,-0.438686805,1412,1570,7904,-494,762,116,467,-431,501,0
228338344,16754,3805,-539,-0.95708891,-0.186819483,-0.2041209,0.864842126,-0.448560821,2168,988,5196,-406,784,134,485,-439,489,0
228358344,16552,4651,-1534,-0.952707667,-0.205194879,-0.206662785,0.859958429,-0.456651229,1890,2640,3774,-319,895,147,495,-449,492,0
228378344,17370,4440,-292,-0.947525837,-0.224426854,-0.210438104,0.855585536,-0.463193642,3724,2076,6976,-259,1057,220,481,-431,500,0
228398344,19912,4235,79,-0.938840732,-0.251902878,-0.217715592,0.851188496,-0.46786163,9116,1390,8670,-158,1501,410,509,-437,516,0
228418344,22293,4164,-311,-0.924115907,-0.292971257,-0.228981393,0.84544736,-0.473112317,14290,886,8998,-77,1798,563,481,-449,517,0
228438344,26872,3765,1093,-0.908791969,-0.330613542,-0.23866027,0.83788651,-0.481811497,23950,-218,13038,-228,1639,560,507,-469,552,0
228458344,27817,5471,4055,-0.898711901,-0.353972174,-0.243074546,0.828602497,-0.495426709,26178,3054,19718,-480,953,446,497,-475,547,0
228478344,25035,7978,7534,-0.896454569,-0.355932662,-0.248412344,0.820083354,-0.506710598,20692,7898,26736,-373,23,454,517,-491,570,0
228498344,23487,7230,13813,-0.905446891,-0.325660715,-0.258028731,0.810463805,-0.517432043,17292,6096,-27222,-319,-1418,611,521,-493,528,0
228518344,21407,4523,15337,-0.920897642,-0.269548321,-0.269090605,0.797081711,-0.532527465,12602,324,-25980,-551,-2612,722,505,-515,513,0
228538344,20487,942,6023,-0.932415044,-0.212337309,-0.281875861,0.797841866,-0.525196958,10392,-7238,19040,469,-2333,472,483,-535,481,0
228558344,30819,-6680,-6323,-0.935068008,-0.185941316,-0.29230404,0.810461428,-0.499950387,30986,-22806,-6540,1282,-723,214,493,-551,452,0
228578344,30996,-6156,-11314,-0.94300304,-0.153804341,-0.285376978,0.814751793,-0.496750237,31080,-21540,-17578,228,-1286,-273,467,-525,430,0
228598344,29981,-12503,-11993,-0.955107169,-0.11684327,-0.260993196,0.81197626,-0.513711695,28642,32070,-20134,-700,-1745,-847,449,-545,427,0
228618344,27123,-12880,-14084,-0.966222566,-0.073890693,-0.233661872,0.796788847,-0.548568884,22540,32178,-25698,-1550,-2168,-909,421,-547,444,0
228638344,24696,-8547,-12466,-0.973628119,-0.02078543,-0.212875651,0.770456206,-0.592344828,17426,-24030,-24190,-2030,-2643,-696,405,-539,401,0
228658344,22794,-6010,-9816,-0.976852544,0.036418013,-0.195933102,0.743767574,-0.630757004,13520,-18410,-20770,-1813,-2713,-657,389,-551,364,0
228678344,20272,-5584,-9773,-0.975450506,0.096278703,-0.183044939,0.715864491,-0.665712543,8524,-17144,-22650,-1698,-2771,-599,345,-561,394,0
228698344,20374,-4151,-10929,-0.970505323,0.152287688,-0.171478822,0.684610767,-0.700382935,8890,-13902,-26802,-1743,-2605,-661,325,-581,381,0
228718344,20721,-3108,-11019,-0.961944487,0.208949845,-0.160764898,0.648694847,-0.736047585,9864,-11470,-28840,-1863,-2654,-759,291,-581,378,0
228738344,18449,-1327,-9464,-0.949725537,0.265382584,-0.150887386,0.605449928,-0.77379954,5712,-7588,-27576,-2092,-2688,-906,271,-601,352,0
228758344,14294,-1259,-8224,-0.943190744,0.296752503,-0.135940361,0.553303529,-0.815633196,-2124,-7126,-26810,-2265,-2552,-1105,249,-623,373,0
228778344,12080,-1228,-7707,-0.936565759,0.323280593,-0.120706221,0.496554365,-0.853481684,-6320,-6562,-26672,-2296,-2357,-1219,229,-657,378,0
228798344,11356,1007,-6828,-0.929529835,0.346338492,-0.111294957,0.438608387,-0.885802532,-7536,-1624,-25674,-2217,-2175,-1223,211,-657,396,0
228818344,10196,3230,-6019,-0.914506206,0.386318279,-0.101697617,0.386265375,-0.90974753,-9638,3128,-24658,-1962,-1921,-1181,197,-687,429,0
228838344,9681,3777,-5347,-0.899319563,0.422314029,-0.094677654,0.336903671,-0.929733211,-10148,4454,-24508,-1783,-1752,-1099,213,-679,423,0
228858344,9667,2586,-5662,-0.884132259,0.454695856,-0.088767605,0.289002649,-0.946257183,-9672,2266,-26204,-1666,-1597,-1081,193,-711,446,0
228878348,10230,5306,-4106,-0.868636604,0.483922329,-0.088496418,0.240105597,-0.959858524,-8034,7712,-24054,-1734,-1479,-940,207,-709,415,0
228898348,7500,7110,-3601,-0.852851111,0.510478077,-0.093704055,0.196720503,-0.96915544,-12972,11152,-23918,-1588,-1374,-677,203,-727,477,0
228918348,5783,6755,-2494,-0.839860862,0.53091736,-0.098426076,0.162638972,-0.975101206,-15968,10290,-22380,-1220,-1073,-531,199,-739,486,0
228938348,7414,5111,-237,-0.831876528,0.543660507,-0.096643342,0.142122176,-0.978281692,-12442,7060,-18284,-593,-640,-476,189,-745,511,0
228958348,7054,4784,66,-0.832223563,0.544570899,-0.088344598,0.124661496,-0.981505344,-13166,6676,-17712,-341,-41,-636,187,-739,488,0
228978348,5226,5470,1479,-0.837611355,0.538228005,-0.075112246,0.111568619,-0.984204419,-16998,8480,-14678,-83,343,-706,193,-753,473,0
228998348,3829,6196,-419,-0.84479852,0.528866462,-0.05864747,0.101866327,-0.986296209,-20032,10472,-18166,98,506,-741,219,-743,484,0
229018348,7131,3112,-5292,-0.854764959,0.514522385,-0.037041486,0.105399759,-0.986978794,-13756,5012,-27442,658,767,-639,239,-725,485,0
229038348,14231,7916,27836,-0.847563505,0.527662678,-0.000208603,0.134618998,-0.984074013,668,15826,-27144,1878,-531,-620,221,-735,478,0
229058348,29225,-1282,681,-0.869533863,0.489633195,0.026079757,0.161525231,-0.979638524,29930,-1708,-14668,1576,1823,-321,221,-711,444,0
229078348,26271,909,17394,-0.883498771,0.462065842,0.047275551,0.17268111,-0.976924036,23578,3368,19654,898,1291,-500,227,-697,484,0
229098348,19519,5220,302,-0.906662159,0.414612306,0.048870402,0.180643924,-0.976001935,9494,12334,-13318,540,1701,-210,249,-717,476,0
229118348,13656,3566,1625,-0.926052243,0.368970837,0.046338283,0.191056296,-0.973855961,-2952,8938,-9050,563,1748,-31,223,-699,470,0
229138348,18553,-2499,1208,-0.941899426,0.324874729,0.05399931,0.198937526,-0.971982466,6308,-3308,-8468,447,1619,-50,267,-701,470,0
229158348,18494,-673,1250,-0.953925183,0.287221042,0.05412601,0.195715319,-0.972639132,5784,444,-7118,-51,1394,-29,251,-691,492,0
229178348,17979,-555,1713,-0.963254217,0.254116898,0.051004663,0.188834164,-0.973960066,4422,580,-5048,-232,1271,57,259,-687,495,0
229198348,18106,1278,1625,-0.971135862,0.223298868,0.042921559,0.179736886,-0.976035507,4414,4074,-4190,-341,1199,133,279,-707,503,0
229218348,18027,964,697,-0.978242889,0.191508522,0.031377616,0.170618758,-0.978130409,4022,3038,-5026,-372,1200,318,261,-717,516,0
229238348,17106,1344,1639,-0.984045096,0.160215907,0.018044207,0.161051549,-0.979995258,1966,3374,-2028,-385,1278,389,275,-703,522,0
229258348,17566,1215,1649,-0.988861855,0.12722641,0.005556729,0.152750339,-0.981408695,2720,2686,-896,-317,1371,402,285,-723,538,0
229278348,17207,297,1211,-0.992587993,0.092811061,-0.004740098,0.14674986,-0.982364986,1876,442,-618,-208,1449,422,293,-713,534,0
229298348,16360,482,48,-0.995089216,0.056264153,-0.016353841,0.141686644,-0.982997719,100,432,-1756,-161,1516,490,277,-721,537,0
229318348,16725,-72,-148,-0.996118952,0.01982653,-0.027712107,0.1372227,-0.983399669,796,-1062,-944,-119,1516,507,283,-727,570,0
229338348,17655,-864,-1790,-0.995680707,-0.018997926,-0.037453114,0.134583121,-0.983432056,2670,-3040,-3026,-23,1528,540,283,-721,565,0
229358348,16450,-1271,-1790,-0.993673665,-0.058407271,-0.044493645,0.129888693,-0.983673433,326,-4118,-1702,-92,1589,482,291,-725,557,0
229378348,15805,-1275,-1483,-0.990227088,-0.097386906,-0.050605604,0.120995399,-0.984583886,-844,-4338,240,-249,1625,475,293,-737,550,0
229398348,14363,-59,-1066,-0.985490391,-0.133606808,-0.058100565,0.103557939,-0.986211065,-3572,-2084,2320,-584,1572,504,299,-737,596,0
229418348,12833,651,-1014,-0.979382388,-0.168339197,-0.067230251,0.080791883,-0.987633247,-6446,-898,3506,-776,1432,547,289,-733,621,0
229438348,13631,435,-2262,-0.972036865,-0.202374462,-0.077621446,0.05761409,-0.988507034,-4602,-1686,2138,-763,1417,651,287,-755,625,0
229458348,12658,698,-2798,-0.962112062,-0.242110552,-0.08598549,0.033879139,-0.988994407,-6228,-1418,2358,-782,1642,589,279,-759,654,0
229478348,12584,566,-2841,-0.94744505,-0.291527063,-0.092873372,0.018639263,-0.988718547,-5902,-1908,3902,-440,2098,475,301,-739,665,0
229498348,14029,2785,-1968,-0.929662358,-0.34070731,-0.102699944,0.009803604,-0.987849958,-2372,2300,7460,-191,2402,432,285,-755,686,0
229518348,14635,3590,-534,-0.90893477,-0.389569107,-0.113003115,0.005293151,-0.986851605,-418,3612,12062,-38,2625,363,275,-749,673,0
229538348,17215,3461,-2374,-0.891389441,-0.426142819,-0.119275922,-0.001669709,-0.986090356,5322,3102,9512,-149,2042,316,267,-749,710,0
229558348,21373,7728,-2557,-0.880830651,-0.447888995,-0.117413204,-0.006646849,-0.986293588,13878,11618,9566,-136,1017,60,273,-765,716,0
229578348,21242,-188,10428,-0.883499196,-0.444891477,-0.108258023,-0.017429719,-0.98717143,13530,-3916,-30100,-480,-156,-94,265,-765,720,0
229598348,20138,-2471,10027,-0.879301215,-0.453785459,-0.105205175,-0.0191905,-0.987469677,11460,-8382,-30614,-41,444,-39,265,-745,721,0
229618348,17159,4732,-2631,-0.874251053,-0.461332589,-0.114096134,-0.009903967,-0.986654557,5798,5886,10140,454,843,31,255,-755,710,0
229638348,17099,3455,-6303,-0.868675817,-0.470321216,-0.119566849,-0.003722103,-0.986046704,5788,3068,2934,348,682,51,259,-755,711,0
229658348,18065,2453,-7879,-0.860647252,-0.483709583,-0.124136943,0.002424661,-0.98554913,7972,848,180,374,840,87,277,-747,729,0
229678348,18768,4875,-9378,-0.850670557,-0.499597169,-0.129726488,0.006846204,-0.984858373,9658,5512,-2382,348,843,144,243,-747,736,0
229698348,22537,4238,-6972,-0.843495553,-0.509907948,-0.136020158,0.010686418,-0.983970957,17432,4034,2766,344,586,178,233,-759,725,0
229718348,23810,4167,-6047,-0.838439194,-0.515820408,-0.144168515,0.019598387,-0.982594863,20142,3626,4812,562,420,133,245,-773,718,0
229738348,23932,5928,-3242,-0.836191682,-0.516737808,-0.154207778,0.035837775,-0.980733369,20462,6824,10450,856,230,37,251,-773,706,0
229758348,23791,7003,2443,-0.83833858,-0.510591069,-0.162548896,0.057239015,-0.978289867,20106,8704,21624,1001,-68,-131,227,-783,704,0
229778348,22866,4439,9486,-0.849798393,-0.488274479,-0.171778729,0.083007921,-0.97485397,17876,3276,-30548,1176,-799,-177,257,-785,696,0
229798348,25295,4585,16939,-0.876634277,-0.435699301,-0.179712714,0.106896006,-0.971218931,21838,3308,-17338,1095,-2210,-142,243,-799,668,0
229818348,22080,4199,6329,-0.904271767,-0.374728354,-0.181289899,0.12403889,-0.9688634,14492,2484,24988,746,-2584,-197,231,-785,672,0
229838348,27281,6203,406,-0.920102872,-0.333638335,-0.182788386,0.154548895,-0.964228677,24392,6448,11772,1270,-1534,-364,231,-787,640,0
229858348,29034,6857,-8858,-0.938111171,-0.286244858,-0.172053099,0.186471269,-0.960549969,27302,8102,-8302,1175,-1803,-792,235,-789,612,0
229878348,25327,3602,-13121,-0.955369834,-0.237958873,-0.149612346,0.213765729,-0.95851727,19318,2318,-18408,894,-1874,-1139,221,-781,595,0
229898348,24880,1997,-13707,-0.970369052,-0.18599073,-0.125570504,0.23152579,-0.957773156,17932,-112,-21284,558,-2062,-1069,231,-789,590,0
229918348,24173,765,-14849,-0.982675254,-0.126667626,-0.103573,0.231427848,-0.960468896,16110,-1858,-25510,-94,-2429,-839,235,-785,578,0
229938348,22156,4235,-11180,-0.991094749,-0.057056494,-0.086257702,0.222629322,-0.964316459,11792,5644,-20446,-368,-2847,-626,223,-791,572,0
229958348,18484,6735,-8047,-0.993357366,0.029730221,-0.075787491,0.211988054,-0.967417076,4346,10986,-17004,-379,-3521,-379,235,-805,574,0
229978348,18518,6475,-6121,-0.988362977,0.113006731,-0.065903305,0.203966113,-0.969879681,4588,10792,-15892,-232,-3373,-389,221,-815,562,0
229998348,16284,5434,-5184,-0.979753302,0.176832018,-0.061227758,0.193283938,-0.973008607,484,9104,-16558,-258,-3148,-512,227,-817,585,0
230018348,11409,5646,-4417,-0.969195444,0.228358235,-0.061549544,0.185513575,-0.974525485,-8884,9638,-16776,-109,-2724,-447,219,-825,573,0
230038348,9190,6134,-3409,-0.954404509,0.285279227,-0.054336577,0.184561098,-0.974570025,-12932,10488,-16140,115,-2332,-254,217,-833,573,0
230058348,8176,6963,-3956,-0.939935843,0.331341889,-0.047203435,0.191056179,-0.973637002,-14470,12380,-18758,422,-1898,-157,221,-849,558,0
230078348,7643,5862,-4333,-0.925788388,0.370370071,-0.03891353,0.203582421,-0.971494127,-15068,10450,-20794,682,-1613,-98,201,-857,562,0
230098348,7860,5209,-4450,-0.911813095,0.404539131,-0.030358992,0.215694025,-0.969148584,-14174,9424,-22150,678,-1429,-90,209,-859,549,0
230118348,7815,3707,-4781,-0.899367984,0.432003198,-0.02538485,0.226079412,-0.966879407,-13852,6584,-23714,557,-1160,33,205,-841,543,0
230138348,5192,5925,-4630,-0.888315544,0.454277081,-0.029103824,0.233916387,-0.964977758,-18732,10898,-24142,308,-948,318,199,-863,537,0
230158348,3772,5800,-3773,-0.879008919,0.471884755,-0.032712976,0.253470987,-0.959858896,-21270,10530,-23004,741,-729,547,191,-879,510,0
230178348,5078,3330,-3419,-0.873167001,0.482834682,-0.030664302,0.283889571,-0.951431626,-18468,5656,-22656,1248,-411,575,197,-865,514,0
230198348,4752,3691,-2943,-0.871889729,0.485536739,-0.023660524,0.315818626,-0.941530779,-19076,6608,-21792,1406,-32,443,181,-869,492,0
230218348,5950,920,-1087,-0.876009399,0.478567494,-0.009313565,0.351179186,-0.929332353,-16820,1534,-17848,1693,406,258,185,-851,485,0
230238348,5260,4898,-2500,-0.88230009,0.466645639,0.012866159,0.391419183,-0.913033951,-18414,10220,-20280,2061,599,73,159,-837,441,0
230258348,6940,2903,-6737,-0.890050761,0.449568218,0.044557897,0.44316062,-0.888191558,-15322,7268,-28186,2743,746,-41,179,-821,410,0
230278348,13924,6880,24179,-0.891019398,0.439793464,0.094405799,0.5188487,-0.84230553,-1428,16858,-31540,4203,177,-178,175,-791,391,0
230298348,32764,-20026,-258,-0.907243062,0.393262817,0.135037166,0.591437247,-0.787344577,-29828,29908,-13344,4130,1634,82,155,-739,339,0
230318348,28119,-7791,13090,-0.917730428,0.361869907,0.150385262,0.616217669,-0.765327528,26148,-10670,14332,1560,1216,-28,171,-705,317,0
230338348,16183,8576,-1565,-0.933428492,0.326896321,0.131920234,0.638441155,-0.750508742,1964,22012,-14156,1010,1009,458,179,-693,325,0
230358348,14533,3197,-84,-0.94995445,0.284614317,0.109593851,0.66651985,-0.729808934,-1964,10288,-9742,1226,1380,964,185,-687,281,0
230378348,18015,-6597,-202,-0.960422417,0.243974578,0.114906796,0.690856295,-0.706024462,4574,-9666,-8624,1361,1324,471,179,-687,296,0
230398348,24708,-3150,-387,-0.967056707,0.216925226,0.111779184,0.705150504,-0.691999808,17712,-2642,-7874,839,1105,347,193,-655,294,0
230418348,17068,-4184,-520,-0.974330997,0.182481598,0.10948416,0.714441599,-0.682959799,2226,-4918,-7220,517,1179,389,193,-657,275,0
230438348,18584,-4684,726,-0.979163881,0.155369606,0.107030035,0.721246306,-0.676097173,5078,-6004,-3750,405,998,368,223,-657,271,0
230458348,18986,-3450,566,-0.983508095,0.131070018,0.098172555,0.725010278,-0.673306974,5742,-3766,-3260,186,917,520,225,-647,272,0
230478348,17054,-3316,433,-0.987337921,0.105730793,0.089690374,0.726418171,-0.67315603,1750,-3798,-2678,61,991,511,217,-653,277,0
230498348,16873,-3895,33,-0.99037363,0.078357182,0.082112551,0.728205813,-0.671991633,1276,-5244,-2568,110,1079,528,237,-657,307,0
230518348,16701,-4397,-925,-0.992758691,0.047555774,0.075456282,0.729016889,-0.671912529,854,-6500,-3500,66,1188,530,235,-661,293,0
230538348,15695,-3106,-1062,-0.994313445,0.015155416,0.066974661,0.730279651,-0.671532739,-1208,-4146,-2696,105,1268,543,261,-667,322,0
230558348,16958,-3973,-720,-0.994627627,-0.016331473,0.059512984,0.731198,-0.671153639,1302,-6162,-920,115,1304,548,263,-671,307,0
230578348,16324,-3280,-1382,-0.993998295,-0.047784526,0.050816057,0.729297394,-0.673940608,56,-5038,-1224,-39,1295,574,267,-653,322,0
230598348,15172,-617,-866,-0.992393889,-0.079315143,0.038379668,0.726371057,-0.677807571,-2186,22,882,-81,1353,560,281,-671,333,0
230618348,14739,940,501,-0.99017461,-0.107294921,0.024066313,0.72266062,-0.682526652,-2960,2754,4664,-110,1370,536,293,-677,336,0
230638348,14171,1383,892,-0.987267036,-0.132514151,0.008321711,0.718941648,-0.686748357,-3992,3142,6326,-81,1326,576,309,-699,355,0
230658348,14957,364,832,-0.984116733,-0.153817941,-0.006073665,0.714940891,-0.690916959,-2310,548,6916,-68,1182,629,307,-681,358,0
230678348,15033,-901,40,-0.980294866,-0.175515922,-0.017684692,0.711693462,-0.694110639,-2032,-2458,6010,-10,1161,630,311,-691,349,0
230698348,13795,-1310,-706,-0.975222671,-0.200002665,-0.025360844,0.708004765,-0.697388504,-4346,-3570,5296,-34,1249,530,331,-709,345,0
230718348,13646,-1751,-1028,-0.967845425,-0.232577879,-0.030732332,0.706254303,-0.699216042,-4390,-4664,5724,66,1596,464,335,-697,359,0
230738348,14406,-729,-471,-0.959035996,-0.265122369,-0.037413455,0.705871575,-0.699176677,-2564,-2770,7988,158,1711,412,345,-703,382,0
230758348,15383,1683,841,-0.950390704,-0.292858694,-0.048326455,0.706132315,-0.698334146,-290,1846,11622,198,1656,386,349,-701,360,0
230778348,15662,3625,346,-0.941381952,-0.318101713,-0.06201982,0.705173187,-0.698276464,562,5382,11442,144,1546,389,365,-711,387,0
230798348,19422,3071,730,-0.935297713,-0.332805771,-0.0736399,0.711181998,-0.690891746,8304,3818,12716,533,1172,266,367,-703,409,0
230818352,20152,1986,2661,-0.935406452,-0.331509242,-0.078515837,0.71828641,-0.683067635,9800,1428,16608,501,586,61,375,-717,412,0
230838352,18347,268,4656,-0.9416124,-0.313991675,-0.076680511,0.724750686,-0.676390858,6014,-2022,20104,382,-15,-82,369,-711,406,0
230858352,18275,-3566,3523,-0.944983218,-0.305382628,-0.069827246,0.732321475,-0.668942351,5748,-9664,17490,452,287,-59,369,-715,392,0
230878352,18611,931,-1383,-0.942798212,-0.311180824,-0.074041517,0.741753235,-0.658155406,6402,-584,7660,673,641,52,383,-683,395,0
230898352,18829,4579,-4048,-0.939621074,-0.318216624,-0.082975418,0.750179389,-0.647408383,6888,6590,2440,651,542,37,377,-693,383,0
230918352,18316,8249,-4071,-0.934676707,-0.331377305,-0.087071368,0.7579308,-0.637886316,6002,13650,2718,608,668,31,385,-673,395,0
230938352,19407,8657,-2694,-0.927417571,-0.348382104,-0.09630109,0.768338056,-0.623885969,8414,14162,6040,872,876,149,397,-689,386,0
230958352,24982,6182,-2851,-0.917480549,-0.370357895,-0.108447751,0.780078927,-0.607285682,19890,8816,6448,1028,1120,197,403,-675,402,0
230978352,24446,7499,796,-0.911646627,-0.381599501,-0.118086316,0.796882244,-0.583372319,19010,11138,14110,1325,706,-53,399,-669,400,0
230998352,23813,7456,4132,-0.912610514,-0.375739338,-0.129525508,0.817756338,-0.551477376,17708,10680,20594,1687,11,-131,423,-665,401,0
231018352,21585,5471,7011,-0.922473164,-0.347948859,-0.138018571,0.836863613,-0.520123962,12926,6432,25444,1593,-954,-190,431,-637,372,0
231038352,21910,3816,10005,-0.939541612,-0.297439493,-0.141585388,0.852553608,-0.492973613,13002,3004,29796,1328,-1952,-243,415,-627,382,0
231058352,24022,5006,10605,-0.957642347,-0.232441807,-0.143749567,0.865813863,-0.468901411,16624,5312,28874,1181,-2555,-180,395,-629,356,0
231078352,22260,12687,5788,-0.968131412,-0.183023609,-0.145833132,0.877432713,-0.446188862,12770,20610,17604,1109,-1868,-98,399,-611,352,0
231098352,26099,11979,-2624,-0.973563004,-0.15168933,-0.146648736,0.894708965,-0.410577754,20278,19168,-258,1669,-1017,-204,375,-575,333,0
231118352,26190,8294,-8741,-0.978038657,-0.125510881,-0.142060369,0.911720533,-0.373357089,20314,11948,-13350,1698,-793,-383,395,-555,320,0
231138352,23812,2601,-11848,-0.983175814,-0.088703187,-0.135091225,0.92542845,-0.34114361,15388,788,-20770,1461,-1271,-401,387,-539,327,0
231158352,22930,2224,-10586,-0.987233711,-0.041337462,-0.129214223,0.936973702,-0.310794689,13486,222,-19792,1379,-1717,-289,405,-517,311,0
231178352,21290,7432,-5741,-0.988637291,0.026214108,-0.123854059,0.941915073,-0.297783628,10144,10812,-12302,642,-2639,-184,391,-525,277,0
231198352,18050,7727,-2543,-0.983814197,0.100078968,-0.127897076,0.942030208,-0.296509953,3800,11536,-8542,181,-3246,-123,399,-521,270,0
231218352,17220,8468,-2619,-0.973421415,0.167841962,-0.138240424,0.941454982,-0.294017354,2500,12720,-10980,211,-3091,98,385,-515,244,0
231238352,15526,11507,403,-0.958871786,0.229999315,-0.150413268,0.943829324,-0.279416177,-442,18554,-6872,701,-2679,90,375,-511,220,0
231258352,15128,6992,-1548,-0.946474014,0.278287595,-0.149697962,0.951707892,-0.253365178,-730,9370,-12532,1316,-2255,-20,349,-489,172,0
231278352,12615,4042,-2194,-0.935083892,0.317725133,-0.143818052,0.961419245,-0.218540685,-5320,3558,-15210,1696,-1968,80,339,-479,183,0
231298352,13244,1669,-2932,-0.923908047,0.353950851,-0.131810882,0.970041133,-0.186272211,-3624,-960,-17942,1608,-1967,66,337,-455,153,0
231318352,13006,-1321,-3431,-0.911737112,0.388909033,-0.117965986,0.975856535,-0.164105136,-3634,-6686,-20126,1147,-2071,121,351,-439,120,0
231338352,10283,-2215,-3604,-0.890273131,0.435630292,-0.11782114,0.977010891,-0.154318452,-8642,-8286,-21462,431,-1990,195,333,-427,97,0
231358352,8510,-239,-4184,-0.867484789,0.477393113,-0.127102682,0.975325769,-0.15786721,-11424,-4634,-24002,-229,-1913,307,307,-435,82,0
231378352,4746,1127,-3409,-0.841152243,0.519001063,-0.141381218,0.972609779,-0.162275383,-18096,-2368,-23812,-381,-1989,444,269,-435,70,0
231398352,3864,260,-1738,-0.81444934,0.557374656,-0.152472425,0.971358819,-0.160291689,-18978,-4458,-21732,-103,-1856,458,243,-447,42,0
231418352,5289,-1749,-404,-0.79243025,0.586513173,-0.159629919,0.971564798,-0.151732923,-15400,-8710,-20022,191,-1392,475,213,-437,34,0
231438352,2164,-74,1588,-0.778302092,0.605252944,-0.159689335,0.973243574,-0.141101057,-21182,-5360,-16654,429,-841,307,217,-427,6,0
231458352,2494,-1478,2451,-0.773335177,0.613852017,-0.150738112,0.976428265,-0.128355334,-20358,-7878,-15212,722,-267,82,213,-429,14,0
231478352,2441,-991,2156,-0.777734902,0.61180768,-0.13541221,0.9801745,-0.116487788,-20610,-6406,-15734,855,303,-142,215,-413,34,0
231498352,138,-866,-2962,-0.789400399,0.600444717,-0.117005777,0.983298719,-0.10971746,-25600,-5558,-25598,764,752,-376,215,-393,26,0
231518352,735,-2610,-8220,-0.809487257,0.577866159,-0.089463948,0.987875586,-0.093890266,-25072,-8148,30168,1274,1351,-471,233,-377,8,0
231538352,17028,19439,32764,-0.788345568,0.611426337,-0.045570164,0.993559875,-0.060687901,8192,-28154,-20030,2237,-1464,-584,247,-333,60,0
231558352,32764,8121,883,-0.838971648,0.541069454,-0.017859259,0.996185984,-0.022296952,-27572,15656,-15926,2007,3629,20,245,-299,66,0
231578352,26499,1622,10714,-0.859967388,0.507071935,0.006550098,0.996531315,-0.011380926,24798,3458,4822,978,1679,-572,281,-275,104,0
231598352,9660,2585,225,-0.8851046,0.460984549,0.019962051,0.99637394,-0.000620807,-9712,5824,-14640,724,2184,-226,303,-265,83,0
231618352,16147,-4375,6475,-0.904604167,0.420504136,0.031113088,0.996128589,0.009822173,2654,-7938,-872,548,1803,55,359,-257,95,0
231638352,20587,-2928,3004,-0.91689387,0.393283367,0.024129676,0.996365113,0.000598369,11120,-5064,-6874,-376,1276,150,377,-255,100,0
231658352,19663,10721,3496,-0.926734423,0.36996988,0.006825576,0.996384772,-0.017939696,8946,21666,-5124,-884,1095,407,403,-265,107,0
231678352,19701,7698,1858,-0.937971886,0.340275984,-0.003180558,0.99629206,-0.023438441,8656,15290,-7428,-274,1344,343,429,-283,134,0
231698352,17175,2414,1585,-0.950779557,0.302064948,-0.012455923,0.996371567,-0.018603506,3246,4544,-6922,198,1432,318,435,-289,136,0
231718352,16869,-2763,613,-0.962197769,0.262852555,-0.014396291,0.996548351,-0.005601989,2256,-6168,-7594,509,1444,471,455,-273,122,0
231738352,18073,-6805,315,-0.971384525,0.225690842,-0.01484085,0.996479452,-0.002318325,4350,-14456,-6942,99,1377,523,477,-273,167,0
231758352,16678,-4983,1732,-0.978202891,0.193235902,-0.018477599,0.996343117,-0.011807093,1316,-10870,-2946,-400,1282,469,497,-289,185,0
231778352,15976,-2177,2542,-0.983393524,0.163112335,-0.026627767,0.995800629,-0.02770468,-280,-5384,-260,-648,1267,445,523,-293,173,0
231798352,16370,-743,1678,-0.987591702,0.131811878,-0.036392354,0.994857397,-0.042136438,370,-2758,-984,-576,1281,445,533,-303,189,0
231818352,15380,241,2105,-0.990805833,0.09942179,-0.047877332,0.993798576,-0.053871054,-1718,-1096,970,-448,1367,463,543,-307,207,0
231838352,15224,2573,1992,-0.992484195,0.068655236,-0.062329402,0.992303424,-0.064497743,-2098,3204,1802,-396,1355,467,547,-319,227,0
231858352,15523,2950,1996,-0.993065054,0.038284292,-0.077182905,0.990832051,-0.071844438,-1516,3482,2828,-249,1371,494,573,-353,247,0
231878352,14640,1137,1684,-0.992721342,0.00791928,-0.088147363,0.989513732,-0.07649547,-3262,-622,3220,-135,1403,496,591,-363,253,0
231898352,15047,184,1041,-0.991596516,-0.021988787,-0.096858512,0.988190185,-0.082572676,-2400,-2884,2898,-176,1358,500,609,-345,270,0
231918352,15007,1309,2049,-0.989624158,-0.0458245,-0.107015957,0.985997573,-0.094511719,-2414,-902,5786,-420,1197,497,605,-359,277,0
231938352,14812,2000,891,-0.987022946,-0.069356034,-0.117339221,0.983210329,-0.109760262,-2720,180,4188,-541,1103,480,611,-395,304,0
231958352,15926,-94,1507,-0.9849119,-0.087902803,-0.122112366,0.98050355,-0.126987608,-400,-4304,6078,-623,948,451,619,-389,326,0
231978352,15760,-1101,2145,-0.98350331,-0.101982089,-0.122294834,0.97733015,-0.148955615,-666,-6382,7866,-828,799,371,639,-419,317,0
231998352,17109,1065,3181,-0.982257536,-0.111555943,-0.123865147,0.972387476,-0.176913787,2062,-1974,10310,-1094,653,313,633,-449,338,0
232018352,15936,2692,4507,-0.981421418,-0.115157383,-0.126707456,0.966484122,-0.204331564,-256,1286,13168,-1102,520,249,623,-427,343,0
232038352,14744,2653,5722,-0.980551694,-0.1187822,-0.130274483,0.960764416,-0.22757417,-2596,1100,15800,-946,645,256,651,-445,358,0
232058352,15438,5156,3479,-0.977175303,-0.134501733,-0.13998981,0.956026845,-0.241375245,-1130,5918,11700,-537,1033,299,649,-453,363,0
232078352,16081,6615,3466,-0.973535586,-0.147518344,-0.151168114,0.952468552,-0.248299867,270,8526,12098,-260,957,259,675,-483,392,0
232098352,18015,1584,3341,-0.971791614,-0.157246636,-0.152541692,0.950566396,-0.254699165,4246,-1868,12162,-230,824,220,669,-487,418,0
232118352,19239,-483,3190,-0.970831342,-0.165454024,-0.149836648,0.947494335,-0.267317841,6742,-6020,12116,-483,703,232,675,-485,397,0
232138352,17782,1288,1824,-0.968293756,-0.177548664,-0.151910689,0.943131283,-0.280924933,3888,-2456,9742,-512,809,329,705,-485,420,0
232158352,17287,3533,-284,-0.962195883,-0.200598048,-0.1612498,0.938116079,-0.292191703,3066,1844,6192,-380,1174,468,695,-487,427,0
232178352,17956,4793,-2703,-0.951863512,-0.233657397,-0.177205458,0.93271251,-0.300398149,4714,3886,2350,-189,1515,665,701,-519,463,0
232198352,21578,2978,-1952,-0.939270832,-0.26971427,-0.192292091,0.926044321,-0.311667273,12364,-308,4952,-263,1529,768,707,-535,475,0
232218352,26716,3496,-1684,-0.925094709,-0.306364685,-0.204947174,0.916703552,-0.330378771,23102,320,6696,-574,1511,786,727,-553,532,0
232238352,23744,6608,-275,-0.91629811,-0.328761712,-0.209843845,0.910069507,-0.345467532,17458,6390,10228,-484,910,448,737,-561,544,0
232258352,24326,7892,3908,-0.915199265,-0.326914998,-0.217492021,0.90561533,-0.352351995,18660,8712,18530,-122,-74,444,723,-565,531,0
232278352,22801,5659,10132,-0.925941214,-0.290345851,-0.224570746,0.900998777,-0.359720761,15246,4020,29794,-158,-1612,423,743,-589,552,0
232298352,21390,2817,15311,-0.944965886,-0.21925186,-0.227063996,0.889520882,-0.385556418,11754,-1756,-27654,-1002,-3279,444,747,-597,506,0
232318352,20780,2028,6301,-0.95653687,-0.159265833,-0.229708733,0.881635886,-0.401757771,10178,-3412,17864,-616,-2667,289,733,-615,439,0
232338352,26064,-2839,-298,-0.961503983,-0.127446879,-0.229326889,0.884464672,-0.395787688,20612,-13128,3588,342,-1227,-18,747,-627,429,0
232358352,28970,-1896,-3528,-0.966623155,-0.105540577,-0.218476807,0.888345065,-0.392920498,26256,-10894,-3592,195,-838,-419,741,-651,426,0
232378352,26182,-8028,-6608,-0.973780781,-0.07942218,-0.196473744,0.8907855,-0.398608852,20442,-22454,-10602,-177,-1091,-833,755,-627,379,0
232398352,23826,-8240,-9149,-0.979631763,-0.050125265,-0.175936631,0.885438051,-0.419129709,15532,-22220,-16638,-825,-1331,-733,763,-629,392,0
232418352,23269,-6477,-9864,-0.983340623,-0.01177902,-0.161934505,0.871083789,-0.453097537,14284,-18242,-19312,-1434,-1788,-475,783,-649,347,0
232438352,21058,-3922,-8072,-0.984183393,0.036498209,-0.153703246,0.851380218,-0.491404362,9822,-12868,-17298,-1667,-2211,-310,773,-661,340,0
232458352,19517,778,-5852,-0.982343854,0.088247633,-0.147748725,0.828251697,-0.531992871,6846,-3370,-14916,-1724,-2824,-203,759,-683,312,0
232478352,19567,643,-4892,-0.976913478,0.142155275,-0.142771351,0.80409684,-0.568943882,7134,-3480,-14758,-1625,-2892,-248,747,-687,281,0
232498352,18497,110,-5436,-0.97054242,0.188056877,-0.133848563,0.779538389,-0.604055943,5244,-4270,-17434,-1520,-2646,-466,717,-705,245,0
232518352,16541,697,-5078,-0.963435583,0.22827263,-0.123419266,0.755406789,-0.636085846,1594,-2712,-18084,-1359,-2440,-627,697,-729,192,0
232538352,13909,129,-4386,-0.955242958,0.266237048,-0.111371119,0.732031517,-0.66488684,-3370,-3472,-17978,-1205,-2369,-697,667,-741,163,0
232558352,11720,-659,-4116,-0.941097016,0.315729236,-0.100096726,0.709442122,-0.689338544,-7448,-4596,-18542,-1096,-2175,-794,641,-739,158,0
232578352,12142,64,-3681,-0.926465947,0.360056069,-0.08789324,0.685883772,-0.714351643,-6106,-2750,-19142,-1066,-1984,-899,643,-755,138,0
232598352,11778,76,-4441,-0.91172082,0.398884606,-0.074893971,0.660908176,-0.738826433,-6348,-2302,-21936,-1034,-1755,-989,601,-747,94,0
232618352,10526,1795,-4514,-0.896908103,0.432747124,-0.066772923,0.633315487,-0.76324478,-8362,1402,-23194,-1147,-1560,-883,597,-755,96,0
232638352,5949,2837,-4146,-0.882320499,0.462166157,-0.065541282,0.608040893,-0.783569131,-17034,3530,-23426,-1076,-1373,-595,577,-761,90,0
232658352,5129,3396,-4059,-0.868037896,0.488258522,-0.068431295,0.585707119,-0.800110647,-18202,4552,-24110,-967,-1234,-395,557,-767,91,0
232678352,7273,3285,-3738,-0.856243417,0.508460468,-0.07121604,0.564668532,-0.814910369,-13522,4238,-24134,-880,-975,-382,547,-771,75,0
232698352,6365,1809,-3444,-0.847655933,0.521899244,-0.076753508,0.538928311,-0.83146725,-15060,1106,-23984,-1103,-686,-409,529,-789,59,0
232718356,5987,1038,-2822,-0.844273692,0.526515244,-0.082280071,0.514201051,-0.846316578,-15702,-618,-22892,-1036,-272,-384,527,-799,90,0
232738356,6392,2862,-1923,-0.84624793,0.522407826,-0.087980111,0.490469066,-0.859724754,-14954,2846,-20964,-982,141,-347,533,-813,102,0
232758356,6580,5005,-1288,-0.8517099,0.512641272,-0.092320385,0.467646459,-0.871877465,-14758,6990,-19372,-909,412,-356,535,-799,102,0
232778356,5291,7499,-1932,-0.860947844,0.497672483,-0.087712452,0.450080585,-0.881450454,-17638,12128,-20170,-525,698,-534,577,-823,108,0
232798356,6530,6892,-3871,-0.872080326,0.480492137,-0.071408643,0.443147283,-0.886439338,-15524,11448,-23484,105,857,-708,599,-831,117,0
232818356,19664,6140,32764,-0.839462979,0.540258167,-0.018418105,0.46874452,-0.875988431,11762,11676,-17682,2142,-2667,-1244,605,-803,125,0
232838356,32764,15274,9597,-0.86917899,0.491023866,0.000858458,0.490178118,-0.864399882,-28524,30578,3120,1333,2398,-125,605,-753,102,0
232858356,22474,1273,8104,-0.885455284,0.459807746,0.030093865,0.504245533,-0.855759853,15914,3534,1150,1235,1473,-689,621,-731,101,0
232878356,11659,2970,-6289,-0.913442116,0.400563072,0.040385461,0.520573189,-0.846440272,-6306,7496,-26376,1050,1748,-275,649,-703,102,0
232898356,15211,2847,3348,-0.92813395,0.364360224,0.039338814,0.53319566,-0.837754536,48,7198,-5366,727,1440,65,671,-707,138,0
232918356,23364,-2086,1525,-0.938400067,0.337169342,0.034951736,0.539158437,-0.834046023,15968,-3026,-7992,284,1225,304,677,-695,144,0
232938356,18811,1308,-389,-0.951057483,0.301047914,0.02259285,0.535958771,-0.837141329,6554,3444,-10944,-218,1211,355,707,-711,161,0
232958356,19233,-1558,31,-0.961658938,0.264804153,0.019104121,0.531479271,-0.839844109,7008,-2552,-8858,-194,1273,186,721,-701,184,0
232978356,16918,-4565,73,-0.970357312,0.229835114,0.023123457,0.52586698,-0.843118573,2072,-8604,-7586,-215,1259,95,725,-727,233,0
232998356,16775,-4656,533,-0.976892505,0.199296003,0.02391897,0.516093578,-0.848898763,1554,-8768,-5614,-431,1136,200,727,-715,243,0
233018356,17247,-1735,446,-0.982570486,0.169516629,0.016716326,0.501212319,-0.857970137,2310,-3004,-4800,-690,1117,296,769,-733,278,0
233038356,15679,437,641,-0.987441761,0.138249632,0.006388199,0.482921256,-0.868423866,-1000,1116,-3334,-825,1229,281,1019,-747,286,0
233058356,15401,801,314,-0.991479747,0.104449322,-0.002479906,0.465540659,-0.877824284,-1692,1570,-2868,-754,1334,242,773,-755,318,0
233078356,15183,1270,1178,-0.994207103,0.071831999,-0.011941193,0.448198538,-0.886719385,-2226,2220,18,-736,1382,268,783,-765,369,0
233098356,15354,3167,1251,-0.995496724,0.041540502,-0.026355965,0.431730296,-0.894391658,-1934,5644,1190,-679,1320,371,797,-793,373,0
233118356,15020,2488,-29,-0.995888108,0.007817265,-0.039206522,0.418471726,-0.900380868,-2608,3812,-318,-516,1389,400,803,-793,415,0
233138356,15342,738,909,-0.995189864,-0.023857929,-0.04639634,0.406357666,-0.905496487,-1938,-42,2692,-453,1419,337,815,-801,404,0
233158356,14720,846,528,-0.993551591,-0.053860324,-0.052984418,0.392541876,-0.91112061,-3126,-40,2918,-521,1354,329,815,-815,460,0
233178356,15087,1537,1605,-0.991467133,-0.078280527,-0.060486514,0.375613051,-0.91784271,-2310,1134,5962,-653,1227,347,821,-819,472,0
233198356,14976,3393,1520,-0.988621028,-0.099962855,-0.072585604,0.354420492,-0.925319025,-2446,4556,6518,-815,1121,435,819,-841,487,0
233218356,14788,1627,-17,-0.985474948,-0.121004108,-0.081455636,0.330972971,-0.93315086,-2716,616,4058,-889,988,481,809,-851,535,0
233238356,13762,1147,-870,-0.981321584,-0.145972664,-0.089284259,0.306630794,-0.94069309,-4634,-636,3134,-908,1094,508,809,-865,567,0
233258356,15558,28,-822,-0.976697309,-0.171597661,-0.093570394,0.281427685,-0.948132131,-870,-3096,4106,-939,1161,500,827,-881,610,0
233278356,17031,1924,321,-0.971415846,-0.195852254,-0.099356165,0.254979258,-0.954891045,2254,612,7282,-992,1217,468,795,-881,634,0
233298356,16636,4792,1620,-0.965452997,-0.218887554,-0.108968999,0.22965771,-0.960366488,1674,6190,10720,-949,1281,450,799,-895,645,0
233318356,19001,5057,3734,-0.961217601,-0.231442811,-0.119582079,0.211746112,-0.963202188,6576,6348,15452,-631,999,470,787,-903,709,0
233338356,15538,5827,1649,-0.955621913,-0.247690523,-0.130876197,0.206305549,-0.962903822,-192,7606,11746,-134,1127,273,791,-907,705,0
233358356,17077,8247,67,-0.94787295,-0.267303349,-0.146956362,0.210352456,-0.959657911,3110,11992,9148,296,1240,272,799,-897,743,0
233378356,16286,4244,-1617,-0.942829246,-0.278825898,-0.157371335,0.219105104,-0.956044484,1708,3446,6082,496,842,234,775,-891,743,0
233398356,19686,393,-3147,-0.939171325,-0.29071671,-0.157579001,0.220944669,-0.955615835,8656,-4488,3358,178,744,193,779,-901,763,0
233418356,18041,-354,-3254,-0.936862001,-0.299107153,-0.155760754,0.219098503,-0.956420252,5446,-5962,3404,22,552,204,771,-903,759,0
233438356,20217,2654,-4140,-0.931314358,-0.312738793,-0.162074381,0.214770615,-0.956402779,9914,22,1970,0,628,335,761,-911,773,0
233458356,19356,4583,-5342,-0.926824011,-0.323614324,-0.166283787,0.208259977,-0.95713588,8338,3744,-78,-114,492,285,773,-933,774,0
233478356,18543,5547,-3103,-0.9234301,-0.328611065,-0.175283434,0.200722814,-0.957192335,6862,5490,4724,-161,443,367,741,-923,787,0
233498356,24505,2915,-1271,-0.915341098,-0.34636648,-0.182769175,0.189049859,-0.958083222,19008,-126,8816,-257,774,486,753,-933,800,0
233518356,23310,3858,1394,-0.907773016,-0.363344628,-0.187595407,0.180300945,-0.958940271,16870,1606,14694,-178,753,350,749,-939,803,0
233538356,23343,5767,4214,-0.905024931,-0.366314247,-0.194738026,0.180218294,-0.957473114,17026,5194,20434,197,213,303,741,-935,840,0
233558356,22458,5118,8384,-0.912745584,-0.344591606,-0.198802495,0.177065155,-0.957250083,15002,3766,28064,25,-928,236,741,-939,806,0
233578356,22970,3618,14376,-0.932151627,-0.290128278,-0.196625081,0.16440618,-0.959951617,15364,830,-27236,-445,-2451,126,745,-927,788,0
233598356,20457,3870,8445,-0.950137075,-0.228469212,-0.19283821,0.157628123,-0.961846668,9742,1454,24422,-236,-2664,-34,745,-945,768,0
233618356,23082,3740,4938,-0.958654992,-0.188787237,-0.194208136,0.173788378,-0.958756769,14734,1156,16078,744,-1495,-55,751,-949,714,0
233638356,25942,1727,936,-0.96550576,-0.160276057,-0.186024176,0.193754811,-0.956517497,20236,-2606,7134,820,-1001,-439,767,-941,683,0
233658356,24692,-3014,-6275,-0.97230738,-0.138890482,-0.166940831,0.20024775,-0.958654672,17516,-11472,-7990,197,-818,-767,761,-923,664,0
233678356,24031,-4448,-11221,-0.978820343,-0.115129592,-0.145808991,0.190842059,-0.963939646,15976,-13656,-18660,-448,-1018,-758,787,-923,643,0
233698356,23912,-3983,-11788,-0.985286389,-0.074016824,-0.128882417,0.164022215,-0.971256102,15512,-12178,-21124,-1108,-1809,-534,791,-911,641,0
233718356,19848,-1667,-10707,-0.989285426,-0.015914697,-0.119481135,0.135320088,-0.9768037,7236,-7242,-20852,-1126,-2481,-287,797,-895,600,0
233738356,19156,1056,-7788,-0.988922775,0.049202887,-0.115156774,0.110109098,-0.980471971,5862,-1658,-17146,-954,-2733,-153,793,-891,580,0
233758356,17981,1301,-5907,-0.985686565,0.102226904,-0.111818716,0.083827535,-0.984033564,3672,-1090,-15532,-930,-2747,-138,799,-901,561,0
233778356,17637,1959,-5205,-0.979516245,0.153970927,-0.108632448,0.058851555,-0.986326667,3200,368,-15834,-855,-2707,-227,795,-883,481,0
233798356,16760,2603,-4776,-0.97115959,0.203742838,-0.103163353,0.032848325,-0.9881793,1744,1884,-16636,-849,-2676,-431,803,-899,494,0
233818356,13124,1912,-3613,-0.962874204,0.244286053,-0.093504983,0.006433181,-0.989669718,-5226,816,-15668,-806,-2331,-644,805,-883,447,0
233838356,11631,2392,-2344,-0.951326849,0.289463518,-0.079889397,-0.013867943,-0.989920158,-7950,2168,-14146,-568,-1904,-714,791,-869,430,0
233858356,11684,3363,-2242,-0.93988259,0.328377998,-0.065136613,-0.029203486,-0.99066589,-7448,4592,-15232,-326,-1643,-723,785,-847,384,0
233878356,11913,3632,-3149,-0.926963914,0.366080655,-0.049198277,-0.039870456,-0.991197014,-6568,5652,-18282,-102,-1593,-719,793,-835,363,0
233898356,12943,1326,-2705,-0.919174522,0.387446744,-0.037356303,-0.051754199,-0.992064506,-4022,1496,-18614,-128,-1594,-658,801,-827,317,0
233918356,11061,2158,-2435,-0.904589485,0.420706205,-0.028574794,-0.066324726,-0.990634203,-7546,3382,-18640,-319,-1428,-528,783,-825,285,0
233938356,10422,3092,-2268,-0.889454354,0.452278046,-0.02595391,-0.085187603,-0.989364127,-8316,5334,-19350,-566,-1393,-393,791,-809,281,0
233958356,10365,3911,-2353,-0.87349128,0.482544206,-0.026578531,-0.105463639,-0.987365633,-7908,6952,-20510,-664,-1358,-325,781,-801,241,0
233978356,9073,3376,-2206,-0.857991807,0.509594198,-0.029499436,-0.123748777,-0.985130953,-9980,5786,-21106,-629,-1237,-228,777,-799,237,0
233998356,7391,3828,-1198,-0.846921274,0.527965134,-0.028349328,-0.134591373,-0.983739862,-12978,6728,-19694,-276,-831,-233,769,-795,222,0
234018356,5795,2945,-1070,-0.843324434,0.534005044,-0.022257178,-0.141413245,-0.982911447,-16050,5162,-19638,-27,-241,-321,765,-785,219,0
234038356,4436,3021,-750,-0.846058551,0.529951921,-0.012712748,-0.143552247,-0.98277224,-18856,5626,-18866,212,250,-338,771,-801,212,0
234058356,2755,3307,-1184,-0.851099722,0.52192275,0.004112849,-0.136378236,-0.983904229,-22384,6748,-19470,688,437,-391,775,-781,210,0
234078356,4446,-124,-4897,-0.858994067,0.507731199,0.03147478,-0.120343007,-0.98540581,-19268,784,-26428,1212,701,-581,769,-757,213,0
234098356,18394,7250,32764,-0.843091959,0.529495468,0.075141958,-0.088043192,-0.986470599,9134,16964,-17344,2122,-1110,-801,803,-725,195,0
234118356,27711,-13621,-9474,-0.868509367,0.481724948,0.100851104,-0.061503023,-0.986246705,26932,-23938,30820,1537,2162,-318,773,-669,164,0
234138356,22380,-574,25807,-0.879259739,0.459444966,0.110330383,-0.06543635,-0.984910192,15940,2464,-28974,120,1081,-380,811,-645,174,0
234158356,19083,8406,3690,-0.892686184,0.430475041,0.118281441,-0.058942638,-0.984424062,8902,20682,-6722,459,1326,-135,841,-633,227,0
234178356,14965,2108,2247,-0.912302412,0.389531516,0.109627862,-0.050782733,-0.98612342,148,8038,-8480,330,1561,216,859,-623,237,0
234198356,18695,-1104,3574,-0.926768672,0.353507571,0.109063227,-0.047705412,-0.986262063,7076,1408,-4588,186,1414,41,871,-625,244,0
234218356,19186,3782,717,-0.941402394,0.316284841,0.096443973,-0.046983335,-0.987711834,7630,10996,-9176,20,1341,199,881,-617,268,0
234238356,17037,-907,616,-0.953725878,0.278406685,0.090661268,-0.04629026,-0.988286721,2882,1190,-8118,25,1375,223,881,-621,305,0
234258356,18210,-451,2224,-0.962573299,0.247107795,0.085582917,-0.047248486,-0.988450427,4902,1958,-3764,-5,1228,154,897,-637,307,0
234278356,18231,-1178,1153,-0.970575254,0.216562165,0.075855927,-0.05165115,-0.988953263,4682,140,-4936,-195,1164,365,909,-649,343,0
234298356,16837,172,1134,-0.977664916,0.186803704,0.061147897,-0.0593141,-0.989540452,1654,2416,-3968,-335,1167,477,917,-657,391,0
234318356,16357,-728,1191,-0.983407317,0.156980803,0.050103075,-0.067480514,-0.989619428,490,188,-2838,-325,1200,420,923,-655,394,0
234338356,16284,-2404,-233,-0.988452999,0.12278354,0.044741859,-0.073202314,-0.98959321,182,-3444,-4618,-205,1300,346,935,-665,433,0
234358356,15713,-2883,-79,-0.99222295,0.087925686,0.040530052,-0.078934357,-0.989331709,-1098,-4576,-3124,-189,1375,355,931,-691,442,0
234378356,16468,-3136,-786,-0.994794186,0.052268609,0.035583759,-0.086172432,-0.988890955,326,-5254,-3374,-243,1395,402,925,-695,475,0
234398356,16525,-2397,-799,-0.996074907,0.01800452,0.029469263,-0.099159032,-0.987852739,394,-3942,-2242,-464,1381,409,941,-697,536,0
234418356,15635,-251,-213,-0.99621577,-0.013398964,0.021041853,-0.114866653,-0.986294169,-1386,190,22,-561,1344,381,949,-719,534,0
234438356,16016,1487,-7,-0.995487181,-0.043209184,0.010359385,-0.132114166,-0.984410578,-594,3414,1452,-616,1325,372,941,-721,599,0
234458356,14598,3309,-281,-0.993648805,-0.072611455,-0.004357653,-0.147642501,-0.982121278,-3376,6690,1882,-535,1318,412,953,-727,589,0
234478356,14253,2795,712,-0.991199804,-0.098701099,-0.018158698,-0.161123598,-0.979939604,-3972,5170,4808,-445,1286,433,937,-739,654,0
234498356,15385,1788,1290,-0.988496453,-0.120108046,-0.029387092,-0.17402491,-0.977476515,-1608,2696,6718,-416,1161,451,923,-753,674,0
234518356,13928,2101,1516,-0.985519942,-0.139438663,-0.041078329,-0.188709525,-0.974421294,-4416,2962,7846,-488,1121,465,933,-753,695,0
234538356,15286,1368,1695,-0.982208068,-0.157791857,-0.050094153,-0.203661175,-0.970892329,-1582,1136,8826,-504,1106,451,925,-773,724,0
234558356,15963,1937,2178,-0.978974616,-0.174111003,-0.059315171,-0.217559002,-0.967531219,-108,1994,10360,-463,1065,437,931,-787,766,0
234578356,15631,2188,1820,-0.974695904,-0.192768399,-0.068940402,-0.226086387,-0.964809718,-632,2190,10260,-243,1180,410,915,-785,795,0
234598356,17608,3117,2972,-0.969787091,-0.212196099,-0.080263217,-0.226154417,-0.964038836,3502,3702,13262,106,1313,383,907,-795,805,0
234618360,15409,-1521,1496,-0.966436347,-0.224563094,-0.085797862,-0.21603886,-0.965802222,-770,-6024,10660,553,997,382,903,-801,814,0
234638360,17081,3868,1278,-0.960577771,-0.245441157,-0.093974217,-0.211413324,-0.966170166,2746,4790,10906,266,1329,168,903,-811,837,0
234658360,17218,2989,7,-0.95752693,-0.255225101,-0.097703274,-0.207893822,-0.966420896,3112,2858,8626,200,796,66,897,-819,881,0
234678360,16632,47,-381,-0.956535049,-0.25975658,-0.095956005,-0.204487709,-0.967422182,1992,-3136,7972,201,545,48,889,-811,862,0
234698360,18109,-389,-1877,-0.954852808,-0.265692422,-0.095751774,-0.198955122,-0.968514517,4980,-4024,5108,315,529,110,881,-811,902,0
234718360,18081,3670,-5138,-0.950859822,-0.277063563,-0.102384843,-0.192541383,-0.96909041,4992,4080,-1188,373,575,121,869,-815,886,0
234738360,16824,4313,-5392,-0.947067194,-0.287482867,-0.10815673,-0.187815037,-0.969363727,2594,5216,-1372,285,507,55,889,-801,903,0
234758360,16343,5223,-6072,-0.940607831,-0.303926237,-0.118675924,-0.178191662,-0.969965138,1828,6732,-2214,521,766,131,897,-823,918,0
234778360,23854,2672,-6727,-0.934153778,-0.31950842,-0.128136896,-0.165207934,-0.971092053,17092,1156,-2980,702,806,235,877,-821,926,0
234798360,23119,5167,-5007,-0.929255148,-0.331071327,-0.134289061,-0.158279045,-0.971475417,15784,5946,836,426,602,182,865,-815,920,0
234818360,23137,6247,-1959,-0.925187739,-0.339306446,-0.141552337,-0.147652427,-0.972136665,15954,7872,7202,585,486,168,875,-827,936,0
234838360,23663,6094,665,-0.922067352,-0.344880687,-0.148196033,-0.136127807,-0.972828733,17110,7348,12632,612,381,128,877,-829,917,0
234858360,22399,3833,5291,-0.923187621,-0.339791643,-0.153245666,-0.11926271,-0.974301951,14544,2664,21718,794,-57,-10,881,-825,906,0
234878360,20265,6280,8179,-0.93000569,-0.318026381,-0.158840974,-0.096345674,-0.975864746,10046,7376,26790,1034,-736,-61,869,-833,921,0
234898360,20533,3912,11065,-0.942947775,-0.276336566,-0.161586897,-0.07451877,-0.977360621,10150,2552,31206,960,-1600,-129,903,-835,859,0
234918360,23327,4779,8092,-0.954956848,-0.232103117,-0.161441412,-0.049673142,-0.978921393,15340,4290,23812,1054,-1670,-234,893,-827,846,0
234938360,22146,8208,4596,-0.963473627,-0.197649438,-0.157303559,-0.022116238,-0.980588783,12706,11280,15686,1135,-1227,-376,921,-799,769,0
234958360,23410,7600,-1198,-0.971183212,-0.166268382,-0.146184016,0.010518381,-0.982433142,14978,10426,3072,1297,-1069,-656,933,-787,727,0
234978360,21859,4102,-7778,-0.977414124,-0.142297536,-0.12940094,0.039109634,-0.984041618,11678,3976,-10880,1115,-797,-819,947,-747,716,0
234998360,21399,4100,-9657,-0.98348378,-0.111066015,-0.113692786,0.055480409,-0.985167691,10558,4482,-15662,651,-1166,-681,977,-717,683,0
235018360,19303,3840,-10316,-0.988863923,-0.06729638,-0.102531812,0.061388332,-0.98613508,6186,4326,-18410,274,-1727,-435,991,-703,687,0
235038360,17980,5188,-7829,-0.991461948,-0.024956854,-0.100111017,0.065999702,-0.986543091,3428,7260,-15180,294,-2109,-270,1003,-679,611,0
235058360,18008,6956,-5104,-0.991118422,0.029311744,-0.103195112,0.071265239,-0.985697139,3486,10780,-11414,330,-2482,-143,991,-679,589,0
235078360,18218,9125,-4677,-0.987177461,0.097628444,-0.099489285,0.07959646,-0.985096574,4042,14992,-12514,427,-2701,-91,993,-669,528,0
235098360,16570,9421,-2858,-0.978677623,0.160713522,-0.10494341,0.088623106,-0.984090753,1036,15794,-11232,514,-2864,-168,971,-655,451,0
235118360,14013,7903,-1426,-0.967815373,0.215629002,-0.10852241,0.100749668,-0.982452013,-3706,12638,-10162,663,-2515,-188,969,-639,414,0
235138360,11169,7876,-1648,-0.958202742,0.252491649,-0.11530348,0.120739572,-0.979447756,-9050,12446,-11872,992,-1807,-54,943,-617,359,0
235158360,11436,6307,-2877,-0.950395327,0.279831927,-0.118633553,0.150124293,-0.975341234,-8202,9100,-15342,1389,-1519,75,935,-619,310,0
235178360,12481,3076,-3781,-0.943545608,0.304461828,-0.113949274,0.181828158,-0.97077463,-5820,2556,-18044,1498,-1515,113,933,-601,272,0
235198360,12984,1377,-3350,-0.937174145,0.326485321,-0.105633182,0.208470576,-0.966312416,-4584,-692,-17892,1298,-1422,82,933,-609,223,0
235218360,12184,475,-3897,-0.925364755,0.359617941,-0.100593502,0.225804221,-0.962175921,-5982,-2342,-19560,827,-1293,93,921,-579,186,0
235238360,7666,2824,-3151,-0.913016036,0.39018379,-0.100400023,0.234361902,-0.960109966,-14598,2364,-19084,415,-1257,163,895,-581,157,0
235258360,6539,3416,-3045,-0.899415694,0.420085393,-0.103408614,0.244783156,-0.957173632,-16404,3452,-19850,433,-1244,328,873,-583,141,0
235278360,6028,1519,-2147,-0.886773285,0.446016056,-0.104857691,0.264787119,-0.951697888,-17012,-390,-18906,815,-1038,455,871,-587,103,0
235298360,6234,-3045,-1802,-0.87862131,0.463641522,-0.097409844,0.292258769,-0.944492461,-16334,-9276,-18792,1246,-623,293,841,-583,68,0
235318360,6469,-5697,-1816,-0.875776682,0.471885245,-0.082150771,0.318735514,-0.937254835,-15770,-14082,-19090,1355,-197,11,827,-547,61,0
235338360,4707,-4676,945,-0.880450271,0.466385646,-0.060851244,0.340941153,-0.93115847,-19446,-11344,-13388,1311,407,-289,839,-543,38,0
235358360,4151,-2757,511,-0.889294572,0.451935396,-0.034944031,0.364117933,-0.923714885,-20854,-6660,-13780,1440,787,-444,841,-513,55,0
235378360,5579,-2837,2189,-0.898301879,0.434858842,-0.011178905,0.385046124,-0.915774453,-18292,-6040,-9864,1322,860,-425,875,-467,79,0
235398360,15011,208,32764,-0.885070093,0.460583698,0.029468882,0.429250883,-0.895580823,982,1384,-15078,2583,-1139,-559,875,-453,80,0
235418360,29279,-9603,573,-0.904372944,0.419546496,0.047075411,0.455961047,-0.881657917,28898,-17664,-12588,1495,1848,-66,877,-375,61,0
235438360,23883,1455,18412,-0.911966376,0.401216349,0.05743665,0.457125373,-0.880358407,17876,4792,23680,313,859,-319,895,-373,69,0
235458360,15217,6985,3623,-0.92529867,0.370741239,0.046165222,0.458301257,-0.88042549,176,15922,-5014,146,1236,-28,909,-365,111,0
235478360,12568,4874,1693,-0.94027219,0.332333816,0.031855867,0.465769343,-0.877265275,-5610,11170,-7672,341,1477,259,925,-369,130,0
235498360,17633,-475,4148,-0.951119017,0.298958508,0.034592069,0.471379369,-0.87394152,4106,194,-1562,364,1383,4,947,-359,175,0
235518360,22145,2026,1004,-0.959330797,0.271731852,0.030662714,0.47175616,-0.874002935,12846,5058,-6894,49,1205,195,953,-349,200,0
235538360,17167,1204,1604,-0.968259884,0.238541996,0.022647914,0.4703648,-0.875094036,2634,3242,-4746,-47,1268,225,969,-365,215,0
235558360,17218,1296,3593,-0.974389363,0.212020537,0.015556039,0.47123703,-0.874595262,2500,3190,234,79,1148,223,997,-371,246,0
235578360,17787,-131,1298,-0.980063528,0.184259187,0.00710449,0.473546907,-0.873573873,3474,-32,-3550,112,1060,398,1007,-369,262,0
235598360,17798,-1617,638,-0.98479595,0.156666128,-0.001242757,0.474318221,-0.87321979,3338,-3364,-3974,37,1041,488,1011,-381,282,0
235618360,17173,-2490,555,-0.988846269,0.127310565,-0.007538967,0.473849062,-0.873330424,1946,-5376,-3148,-1,1141,472,1011,-377,289,0
235638360,16691,-4101,152,-0.992177878,0.096629469,-0.009373662,0.473084252,-0.873688268,870,-8752,-2940,7,1201,409,1033,-401,330,0
235658360,16212,-4582,-497,-0.994648848,0.065234667,-0.010069246,0.471609619,-0.874537423,-168,-9774,-3218,-15,1215,407,1053,-419,379,0
235678360,16542,-3746,-599,-0.996074708,0.034292813,-0.012822001,0.466678986,-0.877166802,440,-8142,-2386,-163,1221,424,1051,-419,372,0
235698360,16891,-2184,-877,-0.996425861,0.003037866,-0.018577707,0.457246626,-0.881918315,1122,-5120,-1896,-354,1249,445,1065,-443,440,0
235718360,16087,253,-883,-0.995704984,-0.027334113,-0.02836845,0.444819557,-0.887936119,-464,-426,-870,-473,1262,450,1075,-447,427,0
235738360,15152,2156,349,-0.994025152,-0.056074537,-0.041173986,0.433153162,-0.893308202,-2278,3062,2620,-425,1297,463,1075,-453,465,0
235758360,15254,2432,485,-0.991372438,-0.083548414,-0.054426489,0.42502105,-0.896506552,-1984,3184,3828,-250,1295,476,1079,-461,493,0
235778360,14254,1353,-57,-0.987814736,-0.111895517,-0.065436348,0.418577105,-0.898797283,-3862,592,3668,-160,1329,478,1075,-497,543,0
235798360,14435,974,1391,-0.984423148,-0.133696998,-0.074394953,0.410702895,-0.901774772,-3364,-494,7392,-230,1202,455,1093,-497,576,0
235818360,14780,537,1830,-0.981338635,-0.149833575,-0.082427954,0.402478753,-0.904655689,-2560,-1668,8840,-239,1026,472,1081,-515,578,0
235838360,14926,-86,1367,-0.978232153,-0.165332772,-0.088378465,0.393057115,-0.908141114,-2160,-3154,8404,-293,972,458,1083,-533,619,0
235858360,14997,-37,1473,-0.974992342,-0.180577017,-0.093696182,0.384586141,-0.911231466,-1902,-3230,9136,-253,989,436,1083,-535,606,0
235878360,15344,293,1242,-0.971118292,-0.19758291,-0.099109975,0.37673532,-0.913966704,-1076,-2732,9228,-222,1067,420,1081,-545,656,0
235898360,16446,971,2090,-0.966491476,-0.215931494,-0.105670468,0.370963955,-0.915659251,1294,-1554,11588,-132,1212,410,1085,-553,694,0
235918360,16581,3325,1795,-0.961008511,-0.234332625,-0.115725984,0.368735215,-0.915395567,1734,2950,11600,27,1232,365,1081,-575,732,0
235938360,15700,2994,763,-0.954318952,-0.25443045,-0.126502709,0.373759583,-0.911726469,184,1918,10164,360,1313,335,1061,-567,763,0
235958360,15592,3325,900,-0.946928969,-0.276071984,-0.136654034,0.382704133,-0.906753184,230,2262,11168,512,1436,244,1085,-575,759,0
235978360,16499,2489,-1106,-0.938539911,-0.300051378,-0.143085775,0.389288984,-0.902923889,2302,314,7856,407,1426,198,1073,-589,797,0
235998360,18491,-598,-2919,-0.932582706,-0.318623781,-0.141097355,0.39060902,-0.902593004,6496,-5974,4760,144,1068,155,1055,-587,819,0
236018360,18414,-473,-4229,-0.92814672,-0.332635887,-0.137788215,0.389618337,-0.903565891,6472,-5604,2544,33,789,122,1053,-591,836,0
236038360,17850,1553,-4139,-0.924176844,-0.343459958,-0.138174803,0.388387879,-0.904147366,5464,-1460,3090,37,667,140,1067,-593,857,0
236058360,17480,5034,-4483,-0.918764986,-0.355281034,-0.143530051,0.386441339,-0.904044868,4872,5506,2788,16,712,129,1053,-587,887,0
236078360,16865,5779,-4388,-0.912830304,-0.366728321,-0.152068976,0.388780631,-0.901641317,3836,6758,3364,228,744,130,1057,-603,928,0
236098360,22314,6138,-6176,-0.903888011,-0.386205608,-0.156715787,0.391791193,-0.899533371,15004,7162,310,288,955,155,1043,-593,892,0
236118360,23343,7191,-5455,-0.897071376,-0.400599841,-0.159835499,0.398890927,-0.895968888,17286,9168,2220,426,758,24,1027,-601,942,0
236138360,23384,8128,-3789,-0.892973822,-0.406539537,-0.167488877,0.415251134,-0.887122432,17502,10794,5750,894,469,8,1057,-613,939,0
236158360,22724,9482,-1315,-0.891527772,-0.405235827,-0.178424915,0.438129939,-0.874026932,16226,13148,10658,1235,215,-3,1065,-621,954,0
236178360,20680,8268,2774,-0.895756295,-0.390168462,-0.190708544,0.466305127,-0.856735619,11994,10322,18348,1505,-336,-53,1045,-631,934,0
236198360,19726,5013,6503,-0.906011054,-0.360683221,-0.200846881,0.492157342,-0.839923266,9748,3486,24844,1392,-987,-68,1081,-637,891,0
236218360,20280,4187,9163,-0.920887848,-0.316285063,-0.209062475,0.519134654,-0.821687166,10364,1570,28718,1434,-1614,-111,1087,-645,838,0
236238360,22427,4796,10513,-0.936375555,-0.261733236,-0.216222124,0.549405362,-0.799850078,14136,2556,29646,1609,-1973,-137,1107,-661,818,0
236258360,23791,7027,8872,-0.950010449,-0.204278186,-0.219739819,0.577804364,-0.778756805,16418,6906,24476,1508,-2086,-172,1117,-643,716,0
236278360,21526,12726,-1459,-0.956557263,-0.173446866,-0.218612448,0.598579142,-0.763431059,11698,18344,2776,1098,-1025,-213,1131,-639,682,0
236298360,20518,14403,-7969,-0.960553499,-0.151663804,-0.217439937,0.623942416,-0.743207071,9548,21736,-10954,1370,-573,-234,1143,-637,641,0
236318360,20913,10895,-9411,-0.965918152,-0.115933554,-0.216045082,0.649025444,-0.721854307,10156,14762,-15004,1395,-1153,-206,1149,-629,608,0
236338360,19665,5001,-10191,-0.971092708,-0.069547081,-0.213542211,0.67401563,-0.699501174,7486,3054,-18080,1426,-1591,-198,1153,-613,546,0
236358360,18893,5759,-8104,-0.974300398,-0.017291145,-0.210234485,0.699016735,-0.675631497,5832,4676,-15614,1474,-1818,-161,1159,-607,481,0
236378360,19278,9662,-5349,-0.974309789,0.047339214,-0.206527085,0.714339361,-0.660652697,6594,12598,-12216,952,-2448,-100,1139,-607,415,0
236398360,16874,13468,-5037,-0.970426556,0.119112663,-0.196515431,0.731369536,-0.644860083,1904,20530,-13940,1049,-2735,-289,1115,-581,326,0
236418360,14882,10542,-2370,-0.96209603,0.176031407,-0.196085188,0.747475388,-0.626587505,-1824,15088,-10756,1202,-2467,-312,1093,-577,269,0
236438360,14589,7849,-1524,-0.953155741,0.223138139,-0.192859625,0.773447698,-0.595683897,-2078,9702,-10622,1855,-1963,-96,1073,-555,195,0
236458360,14673,4752,-2827,-0.945587983,0.260190528,-0.184517487,0.800926639,-0.561561571,-1582,3624,-14564,2023,-1682,14,1031,-511,174,0
236478360,15042,2573,-4149,-0.937499916,0.293852067,-0.17579453,0.823696498,-0.530963499,-508,-576,-18406,1781,-1731,161,1005,-501,120,0
236498360,14086,545,-3004,-0.927090591,0.330874702,-0.165200761,0.840459235,-0.507557824,-2046,-4402,-17306,1382,-1950,161,951,-467,81,0
236518360,13615,-1812,-2926,-0.916971514,0.363579115,-0.152741207,0.849678211,-0.495891754,-2604,-8856,-18238,807,-1913,105,931,-451,44,0
236538360,10764,-1190,-2388,-0.899299765,0.405475823,-0.151733589,0.851153508,-0.492587686,-7970,-7338,-18044,219,-1779,56,881,-429,-39,0
236558364,9255,-418,-2120,-0.880061502,0.444443947,-0.156125296,0.84834528,-0.495927945,-10348,-5934,-18794,-156,-1760,126,869,-439,-52,0
236578364,7785,754,-744,-0.859166421,0.480951836,-0.165172829,0.845307279,-0.498361977,-12598,-3882,-17240,-220,-1701,296,825,-455,-119,0
236598364,6379,1041,-361,-0.837976199,0.513737969,-0.175845291,0.843662096,-0.497568706,-14716,-3652,-17550,-144,-1555,410,799,-451,-102,0
236618364,6056,157,981,-0.818811717,0.540694995,-0.18577292,0.843665699,-0.494057955,-14730,-5740,-15752,-32,-1289,446,773,-473,-148,0
236638364,4853,-304,1598,-0.805035437,0.5592138,-0.191518383,0.844283469,-0.490840703,-16680,-6846,-15126,54,-876,302,729,-481,-175,0
236658364,3356,2252,3050,-0.79702769,0.570196625,-0.19287873,0.847371435,-0.48504563,-19408,-1776,-12584,267,-457,239,721,-487,-166,0
236678364,4194,2710,5342,-0.793810569,0.577072095,-0.185544624,0.856147459,-0.472402023,-17630,-624,-8224,759,-136,159,715,-467,-184,0
236698364,6027,481,5283,-0.795720508,0.578218764,-0.173029747,0.86510526,-0.460523106,-14028,-4680,-8378,860,171,-24,705,-463,-182,0
236718364,5174,1459,8639,-0.802797437,0.572785389,-0.157437833,0.871571472,-0.453959214,-15962,-2218,-1492,741,463,-268,701,-421,-203,0
236738364,9446,3273,20014,-0.800078422,0.583149714,-0.130795041,0.879959673,-0.446032198,-7334,2270,20924,1068,-293,-581,699,-415,-165,0
236758364,11949,-5478,16292,-0.804390242,0.583250131,-0.100139374,0.892608711,-0.428627167,-2472,-14232,13478,1507,254,-465,691,-399,-174,0
236778364,21032,4404,2317,-0.829347096,0.550153865,-0.080801172,0.904032759,-0.40843478,14866,6162,-13384,1297,1829,-73,727,-329,-149,0
236798364,15338,8021,11037,-0.848915812,0.522844668,-0.05221219,0.915881183,-0.385995615,2834,14330,4954,1569,1491,-390,753,-309,-154,0
236818364,12967,1632,8280,-0.866926407,0.49460819,-0.019445909,0.931673003,-0.349947872,-2530,2710,410,2187,1528,-386,781,-229,-111,0
236838364,18219,-6971,2390,-0.890147414,0.451719727,0.008422865,0.939831512,-0.328822928,7392,-14004,-10286,1232,1659,-147,787,-201,-76,0
236858364,17074,-2618,2116,-0.908129193,0.413829289,0.017959189,0.942175418,-0.321845829,4500,-4778,-9592,442,1390,-33,829,-191,-47,0
236878364,20134,-589,2390,-0.923844576,0.377067447,0.018787118,0.941505194,-0.32366851,10084,-572,-7814,10,1353,-13,851,-187,-31,0
236898364,17161,-1,3492,-0.936508261,0.343991563,0.015292779,0.93865942,-0.331329131,3670,514,-4418,-282,1320,34,861,-189,16,0
236918364,16967,1885,3725,-0.946962887,0.313792121,0.012127881,0.936971461,-0.335986251,2926,4286,-2924,-109,1230,-44,891,-187,31,0
236938364,18233,-354,2076,-0.95650528,0.283199951,0.011355499,0.936348639,-0.337972172,5164,-346,-5288,-13,1141,57,895,-181,58,0
236958364,17911,386,1973,-0.964513505,0.254252588,0.004471745,0.934726205,-0.342313249,4244,944,-4522,-173,1094,230,937,-191,96,0
236978364,17549,84,2324,-0.971741691,0.224709203,-0.002827097,0.932469707,-0.348454239,3268,76,-2806,-248,1170,264,947,-185,116,0
236998364,16278,179,2888,-0.977637898,0.19658979,-0.010556447,0.929569531,-0.355761923,512,12,-668,-301,1209,280,967,-187,138,0
237018364,16187,374,2926,-0.982579224,0.168965144,-0.018900493,0.926836737,-0.362468557,164,130,324,-269,1191,319,957,-205,138,0
237038364,16015,-144,2672,-0.986642573,0.141253375,-0.027398646,0.924343508,-0.368163982,-312,-1196,726,-223,1190,358,991,-219,170,0
237058364,16268,-435,2924,-0.989658993,0.115349231,-0.035310634,0.922018427,-0.373210313,92,-2090,2134,-197,1179,409,1007,-245,201,0
237078364,16172,-313,2812,-0.991923336,0.089904642,-0.043386976,0.919094671,-0.379605606,-172,-2110,2762,-246,1177,417,1013,-249,191,0
237098364,15883,-1,1991,-0.993451573,0.062946072,-0.052117592,0.916049894,-0.385626318,-800,-1726,1946,-222,1161,396,1029,-269,240,0
237118364,15878,-317,1293,-0.99429849,0.03630143,-0.058761524,0.914075194,-0.389227275,-832,-2636,1448,-109,1184,397,1059,-271,254,0
237138364,15752,-489,1355,-0.994542068,0.009776277,-0.064442228,0.911429768,-0.39470445,-1086,-3184,2470,-174,1208,383,1061,-299,314,0
237158364,15487,-43,1354,-0.993890192,-0.015679481,-0.071205521,0.907642167,-0.402037481,-1596,-2490,3328,-262,1190,407,1067,-301,336,0
237178364,15245,192,1543,-0.992652845,-0.039480347,-0.078069222,0.902223278,-0.412792776,-2038,-2236,4526,-409,1156,414,1091,-307,353,0
237198364,15476,683,2184,-0.991011707,-0.058852287,-0.085332171,0.89561913,-0.425385462,-1514,-1466,6496,-497,1036,417,1111,-329,380,0
237218364,15350,365,2319,-0.989445981,-0.073680598,-0.091316012,0.888325518,-0.439137125,-1708,-2322,7276,-553,874,410,1113,-331,389,0
237238364,15387,55,2151,-0.988075277,-0.085513819,-0.095786962,0.880396226,-0.453925239,-1580,-3114,7324,-598,741,393,1125,-359,417,0
237258364,15779,100,1621,-0.986333929,-0.097943611,-0.100518943,0.872731775,-0.4671942,-742,-3180,6652,-535,747,407,1105,-361,415,0
237278364,15462,1405,832,-0.984226435,-0.111938864,-0.106339156,0.86440888,-0.481183827,-1314,-682,5498,-569,760,369,1119,-379,447,0
