timestamp,ax,ay,az,roll1,roll2,pitch,yaw1,yaw2,fx,fy,fz,gx,gy,gz,mx,my,mz,step
387598164,1241,138,-423,-0.910164403,-0.401681798,-0.028503291,0.764147915,0.642540481,0,0,0,156,-60,34,975,99,-426,1
387618164,1270,122,-401,-0.911706207,-0.398181701,-0.029172805,0.764574962,0.642004263,0,0,0,136,-100,38,987,103,-394,1
387638164,1305,104,-379,-0.913806945,-0.393213544,-0.029343591,0.76558738,0.640758103,0,0,0,94,-158,43,991,91,-411,1
387658164,1303,106,-342,-0.917657474,-0.384263331,-0.030243544,0.767518714,0.63840656,-9172,750,7246,37,-217,57,975,99,-435,1
387678164,1306,153,-322,-0.921836887,-0.374015309,-0.032333468,0.769835537,0.635488121,-9262,1468,7232,12,-267,74,977,101,-431,1
387698164,1335,169,-277,-0.926753692,-0.361609343,-0.035252925,0.772202276,0.632454347,-8954,1636,7568,16,-335,95,979,103,-437,1
387718168,1376,177,-227,-0.932337863,-0.346811328,-0.038967955,0.775064541,0.628720826,-8474,1642,7908,-7,-405,139,989,83,-433,1
387738168,1362,145,-133,-0.939512569,-0.326615224,-0.042273093,0.778296348,0.624470083,-8924,998,8794,-33,-579,155,975,95,-459,1
387758168,1388,136,-64,-0.948045997,-0.300847838,-0.044946572,0.782084057,0.619505173,-8788,758,9078,-76,-787,150,967,75,-463,1
387778168,1486,188,-51,-0.95650303,-0.272396827,-0.048054448,0.786344361,0.613796761,-7512,1512,8344,-117,-913,142,991,79,-471,1
387798168,1581,306,-55,-0.963724205,-0.244926536,-0.053471987,0.790545195,0.607897367,-6246,3282,7352,-119,-903,156,983,83,-494,1
387818168,1655,349,-29,-0.969507495,-0.219162578,-0.060617948,0.794390853,0.602118842,-5260,3744,6914,-99,-834,203,973,59,-513,1
387838168,1530,139,-12,-0.974669263,-0.194218457,-0.065092088,0.797706673,0.597253842,-7428,118,6354,-50,-815,224,979,75,-530,1
387858168,1626,-34,-89,-0.980351547,-0.163047273,-0.066813788,0.800880658,0.592771022,-6092,-2820,4032,-32,-1158,243,983,69,-520,1
387878168,1411,96,-162,-0.985410377,-0.127669254,-0.070788083,0.807693914,0.58291783,-9728,-782,1610,-296,-1468,257,989,61,-580,1
387898168,1072,327,27,-0.988769842,-0.091604674,-0.081763791,0.823082181,0.559401458,-15270,2764,3562,-958,-1411,343,985,59,-586,1
387918168,1118,420,-382,-0.988309555,-0.089726048,-0.088850439,0.835120551,0.540009452,-14546,4056,-3384,-737,-407,91,959,57,-586,1
387938168,1219,563,-316,-0.988503683,-0.078972239,-0.097314661,0.839189637,0.532170799,-12930,6136,-2620,-176,-648,10,975,31,-596,1
387958168,1131,371,-236,-0.989485934,-0.065035019,-0.097661632,0.842898607,0.526136499,-14364,2948,-1768,-128,-743,-197,959,61,-597,1
387978168,1075,227,-388,-0.989917031,-0.064856211,-0.09447795,0.843155507,0.526397608,-15264,642,-4354,185,-331,-235,949,45,-620,1
387998168,1105,109,-415,-0.989921782,-0.070501998,-0.090792587,0.840774532,0.530914223,-14778,-1222,-4612,391,-84,-145,963,39,-666,1
388018168,1134,63,-407,-0.989591457,-0.078141481,-0.087878528,0.839968095,0.532691417,-14304,-1898,-4210,264,12,-62,957,57,-636,1
388038168,1160,-4,-307,-0.989394352,-0.083134387,-0.083913741,0.843029156,0.528354015,-13874,-2896,-2356,-43,-8,-13,953,31,-616,1
388058168,1189,0,-153,-0.989559058,-0.084272722,-0.079644534,0.850206662,0.517252659,-13404,-2684,274,-378,-37,-5,947,45,-627,1
388078168,1164,165,-9,-0.989789994,-0.082490776,-0.079543195,0.859110827,0.50230041,-13810,98,2630,-552,-30,9,951,41,-647,1
388098168,1140,256,100,-0.989947975,-0.078172714,-0.081388556,0.866386756,0.489197582,-14202,1568,4324,-469,-12,-14,951,43,-642,1
388118168,1137,273,159,-0.990122437,-0.074899497,-0.082669337,0.871122859,0.480449997,-14250,1814,5200,-270,97,-75,959,43,-622,1
388138168,1180,348,150,-0.990218148,-0.071876317,-0.084374315,0.874393042,0.474133395,-13572,3002,4942,-158,96,-126,949,57,-615,1
388158168,1231,354,116,-0.990626048,-0.065372117,-0.085254285,0.877346843,0.468456572,-12772,3066,4148,-127,-90,-155,949,51,-626,1
388178168,1246,367,66,-0.991284605,-0.054674853,-0.084972078,0.879060511,0.46520726,-12560,3288,2950,-12,-310,-219,957,57,-607,1
388198168,1283,356,224,-0.99248605,-0.032114813,-0.08377838,0.880738568,0.462258123,-12004,3134,4828,-5,-683,-239,951,49,-631,1
388218168,1129,309,-49,-0.993167013,-0.02306027,-0.078435903,0.883754209,0.457333021,-14500,2560,-44,-86,-397,-411,957,63,-651,1
388238168,1230,368,-358,-0.993118471,-0.0420059,-0.070849518,0.878908301,0.467937287,-12890,3772,-4574,638,536,-552,975,75,-645,1
388258168,1558,367,-128,-0.993091092,-0.049783267,-0.064794114,0.868010923,0.488781594,-7636,3912,-440,1093,355,-468,977,67,-663,1
388278168,1593,115,170,-0.993904928,-0.044780696,-0.054932852,0.86229001,0.500027861,-7078,58,4338,640,25,-421,971,75,-665,1
388298168,1598,54,178,-0.994137358,-0.047701839,-0.047832678,0.862456234,0.500483764,-7002,-716,4566,153,324,-247,953,87,-643,1
388318168,1457,182,36,-0.993268529,-0.064166043,-0.045711921,0.864275107,0.497528886,-9238,1492,2766,7,783,-148,959,99,-653,1
388338168,1335,2,-190,-0.991779521,-0.086384112,-0.040545129,0.865346059,0.496147459,-11146,-1306,-226,80,893,-164,943,111,-647,1
388358168,1270,-227,-312,-0.989877589,-0.108303178,-0.029406453,0.867378794,0.49329355,-12130,-4790,-1566,8,746,-171,975,123,-616,1
388378168,1271,-186,-405,-0.987348022,-0.131124781,-0.018621588,0.872079419,0.485460622,-12042,-3740,-2354,-228,721,-177,969,121,-625,1
388398168,1258,55,-354,-0.984545663,-0.150800886,-0.012882328,0.879520491,0.471927462,-12158,488,-838,-494,660,-153,983,121,-588,1
388418168,1355,144,-265,-0.982165674,-0.165322544,-0.009962073,0.886238365,0.459136676,-10516,2070,1158,-454,576,-111,989,109,-603,1
388438168,1331,159,-258,-0.979343917,-0.181244651,-0.007976795,0.891029421,0.449765943,-10802,2388,1802,-294,655,-107,993,117,-605,1
388458168,1424,79,-66,-0.977634624,-0.190077463,-0.005772509,0.89456068,0.442661902,-9228,1126,5314,-185,555,-64,977,121,-567,1
388478168,1366,-51,-32,-0.976455871,-0.196309961,-0.000220373,0.897909898,0.435875081,-10110,-858,6088,-174,481,-89,995,113,-563,1
388498168,1238,-3,-94,-0.974621605,-0.204629438,0.003892677,0.900321163,0.430720335,-12108,82,5332,-102,523,-92,991,127,-560,1
388518168,1312,-126,-77,-0.973827502,-0.208350258,0.010424253,0.901697202,0.427759169,-10890,-1758,5738,1,350,-104,981,133,-533,1
388538168,1302,-134,-141,-0.973072378,-0.211594958,0.016538407,0.902659955,0.42555682,-11032,-1684,4776,42,278,-96,995,139,-532,1
388558168,1296,-16,-204,-0.97195603,-0.216159642,0.019710863,0.902983909,0.424685983,-11104,396,3880,94,284,-101,981,133,-546,1
388578168,1357,-26,-215,-0.971074337,-0.219885293,0.021806923,0.903020808,0.424516764,-10096,302,3828,139,249,-61,993,137,-524,1
388598168,1382,-133,-257,-0.969733723,-0.225046176,0.024686087,0.902955296,0.424421838,-9660,-1388,3306,153,285,-3,993,149,-530,1
388618168,1342,-137,-337,-0.967507374,-0.234369645,0.026557129,0.903784048,0.42259793,-10236,-1392,2278,88,390,54,987,131,-529,1
388638168,1303,-115,-341,-0.964992024,-0.244334996,0.02657666,0.905938841,0.417907132,-10776,-988,2546,-33,433,97,1003,127,-541,1
388658168,1323,-116,-274,-0.962947201,-0.25196714,0.026630696,0.909589883,0.409771761,-10386,-1004,3890,-184,366,139,997,113,-526,1
388678168,1317,-77,-249,-0.961808313,-0.256610997,0.026646105,0.914254149,0.399287289,-10428,-386,4492,-272,306,179,991,115,-509,1
388698168,1331,38,-252,-0.96069091,-0.260974267,0.023832845,0.918581922,0.389323168,-10168,1440,4596,-246,302,191,995,117,-503,1
388718168,1282,115,-192,-0.959852748,-0.264173724,0.019764697,0.921635181,0.382153928,-10912,2594,5698,-133,301,143,987,121,-511,1
388738168,1309,25,-143,-0.959865183,-0.264251031,0.017702863,0.923830464,0.37686342,-10470,1014,6522,-47,216,129,989,97,-475,1
388758168,1314,-2,-143,-0.960161904,-0.263389053,0.016436574,0.925506322,0.372793939,-10398,522,6490,6,170,104,985,107,-480,1
388778168,1362,11,-128,-0.960879007,-0.260704981,0.014724263,0.925890671,0.371834155,-9654,680,6658,136,109,77,983,85,-490,1
388798168,1338,-25,-166,-0.961446283,-0.25879221,0.013168699,0.924705246,0.374884656,-10062,26,5954,314,100,55,981,105,-507,1
388818168,1328,-72,-155,-0.962378178,-0.2554904,0.012010271,0.922472691,0.380460938,-10252,-798,6026,427,46,55,991,89,-498,1
388838168,1347,-5,-63,-0.964233132,-0.248584123,0.008053692,0.920536008,0.385246631,-9994,188,7332,407,-30,122,987,93,-496,1
388858168,1393,73,98,-0.967370983,-0.236570425,0.001999044,0.919665929,0.387475139,-9338,1288,9608,303,-121,172,989,93,-492,1
388878168,1485,49,389,-0.972252293,-0.215446834,-0.00386905,0.920220086,0.385992957,-8000,684,13726,144,-304,241,997,99,-509,1
388898168,1644,38,677,-0.975799974,-0.198997948,-0.010697867,0.922560278,0.380238499,-5674,258,17350,-24,-676,349,971,97,-536,1
388918168,1736,107,882,-0.980763573,-0.172516841,-0.020427482,0.92697742,0.368822893,-4372,1042,19770,-249,-1094,507,995,91,-549,1
388938168,1842,399,870,-0.986815669,-0.132262185,-0.032774728,0.932441523,0.35373049,-2882,5312,18268,-403,-1662,621,989,57,-586,1
388958168,1675,563,393,-0.990552969,-0.098426307,-0.040089137,0.936397009,0.342134511,-5676,7694,9526,-297,-1389,380,993,71,-610,1
388978168,1721,596,-450,-0.992380401,-0.076132143,-0.045629268,0.93391108,0.348289972,-4988,8042,-4706,453,-889,224,967,57,-634,1
388998168,1683,595,-1017,-0.994069371,-0.054976085,-0.041536923,0.923642103,0.375459692,-5656,8158,-14464,1329,-803,-221,957,57,-647,1
389018168,1312,120,-635,-0.99535617,-0.042717556,-0.029906534,0.915190438,0.397174036,-11646,994,-9144,1105,-941,-558,957,67,-641,1
389038168,1315,-391,-545,-0.996337822,-0.025423827,-0.012970493,0.908783743,0.41258019,-11624,-6952,-8220,837,-1092,-349,947,93,-676,1
389058168,1161,-303,-531,-0.996615157,-0.018923748,-0.00148118,0.907272741,0.416158598,-14090,-5122,-8254,322,-720,-163,949,103,-683,1
389078168,1142,-45,-592,-0.996747397,-0.015938111,-0.000456575,0.908151854,0.414321706,-14396,-768,-9386,82,-651,26,955,95,-683,1
389098168,949,66,-467,-0.996613638,0.001386246,0.000163013,0.90876838,0.412508737,-17486,1060,-7510,72,-680,0,949,93,-711,1
389118168,817,32,-330,-0.996537779,0.013867106,0.001488451,0.909499509,0.41084653,-19586,560,-5736,89,-496,-28,935,107,-706,1
389138168,736,-45,-274,-0.996451641,0.019526718,0.00331322,0.909824252,0.410100859,-20878,-612,-5026,130,-218,-48,917,95,-733,1
389158168,651,-123,-282,-0.99652875,0.01576763,0.006593433,0.910275968,0.409107311,-22238,-1804,-5164,118,0,-44,925,97,-740,1
389178168,654,-152,-238,-0.996531293,0.01319862,0.008215427,0.910858873,0.407746539,-22192,-2164,-4242,103,118,-42,917,85,-739,1
389198168,694,-106,-128,-0.996578,0.009594284,0.009358457,0.913780443,0.401117144,-21554,-1390,-2364,-129,159,-23,921,97,-741,1
389218168,641,29,79,-0.996519942,0.003706841,0.010527645,0.919547752,0.387460878,-22404,810,1142,-440,258,-23,939,93,-732,1
389238168,777,111,213,-0.996468708,-0.00361147,0.014134747,0.925993439,0.371557519,-20226,2238,3524,-533,315,-119,931,99,-729,1
389258168,999,137,276,-0.996337533,-0.011651762,0.019360306,0.931452662,0.357352585,-16668,2828,4796,-455,345,-180,933,87,-717,1
389278168,1191,100,379,-0.99639881,-0.002486805,0.020588333,0.935298469,0.346972369,-13592,2374,6446,-281,24,-141,929,85,-722,1
389298168,1209,210,419,-0.99644874,0.009684866,0.017537444,0.938765064,0.337547665,-13308,4110,6696,-240,-88,-65,921,79,-747,1
389318168,1291,301,372,-0.996285398,0.026908766,0.012144138,0.942631358,0.326758673,-11994,5440,5312,-295,-379,-42,935,95,-715,1
389338168,1080,383,355,-0.996123772,0.034147914,0.004813902,0.94655369,0.315230733,-15370,6606,4824,-327,50,-85,927,89,-737,1
389358168,994,239,280,-0.996265976,0.027233018,0.008209485,0.949410439,0.30629009,-16746,4092,3586,-216,295,-124,931,93,-737,1
389378168,1001,159,162,-0.996537356,0.013764394,0.009994787,0.95158329,0.299473431,-16642,2870,2138,-124,561,-52,931,85,-731,1
389398168,1002,82,186,-0.996530022,0.000207864,0.010924866,0.954876127,0.288525803,-16628,1670,2970,-301,567,-14,945,81,-700,1
389418168,867,66,373,-0.996528994,-0.007555731,0.008186517,0.961411754,0.265821708,-18788,1324,6216,-794,334,143,939,85,-720,1
389438168,1119,312,385,-0.996403083,-0.018177692,0.002465794,0.967372542,0.243097177,-14744,5328,7088,-791,858,-39,945,61,-694,1
389458168,2060,498,542,-0.996340461,-0.016631756,0.013690199,0.971557969,0.225106364,306,8416,9216,-594,-46,-415,945,93,-721,1
389478168,2516,758,-348,-0.994797023,-0.04969034,0.028384703,0.970035383,0.230252575,7644,13058,-3930,357,1350,-579,933,93,-674,1
389498168,1911,931,554,-0.993144479,-0.063938096,0.048326708,0.962937888,0.255636519,-1980,16480,10968,1182,552,-847,955,89,-678,1
389518168,2045,-407,-562,-0.989339635,-0.098143436,0.064111621,0.950550992,0.295902712,276,-4412,-5754,1815,1314,-758,971,133,-672,1
389538168,2349,-231,380,-0.988600776,-0.096439488,0.077347284,0.942166619,0.318993567,5182,-1162,9242,1100,-127,-610,969,147,-654,1
389558168,2063,-316,713,-0.988363422,-0.091985494,0.085788626,0.942401871,0.316138625,620,-2248,14420,17,-157,-305,961,151,-670,1
389578168,1497,-280,-207,-0.986939594,-0.095140446,0.098040627,0.942686567,0.311708061,-8402,-1354,-238,-56,110,-351,965,159,-675,1
389598168,1193,-496,-940,-0.983224075,-0.115759619,0.114005857,0.939310692,0.317037886,-13204,-4418,-11736,312,230,-377,965,175,-676,1
389618172,1319,-325,-1170,-0.981620774,-0.122376952,0.117483121,0.93831785,0.318022992,-11076,-1358,-14700,182,297,-122,975,167,-657,1
389638168,1425,-194,-1128,-0.980447713,-0.131547231,0.117807433,0.939641472,0.31408694,-9328,746,-13744,-3,405,35,961,191,-691,1
389658172,1514,-210,-1002,-0.978469534,-0.146721782,0.11568817,0.942805098,0.305123923,-7844,424,-11224,-206,683,165,961,175,-649,1
389678172,1351,-39,-727,-0.97411168,-0.176581994,0.111637238,0.948111378,0.290068559,-10350,3106,-6146,-500,940,203,979,171,-623,1
389698172,1298,-58,-459,-0.969090838,-0.203041049,0.107817459,0.952851549,0.275024733,-11022,2662,-804,-475,1031,228,979,177,-633,1
389718172,1281,-72,-229,-0.964110311,-0.2256331,0.106133534,0.956897348,0.260930752,-11102,2338,3754,-410,1044,203,983,157,-613,1
389738172,1241,-35,34,-0.961148718,-0.238969142,0.103908755,0.960936852,0.246530171,-11574,2910,8632,-393,959,167,977,153,-602,1
389758172,1313,-54,205,-0.959489934,-0.246141482,0.102346233,0.964468522,0.232848873,-10332,2538,11724,-345,855,156,987,143,-560,1
389778172,1438,-81,279,-0.95880577,-0.249092586,0.101481146,0.968436375,0.215885513,-8302,2058,13044,-469,735,187,983,149,-572,1
389798172,1342,-158,401,-0.959671833,-0.244665254,0.104332957,0.972592017,0.194505988,-9854,862,14928,-651,542,155,983,141,-561,1
389818172,1177,-80,394,-0.960701104,-0.239920588,0.10629004,0.976066343,0.174808204,-12518,2220,14682,-582,555,112,993,133,-525,1
389838172,1153,247,329,-0.962734828,-0.23395947,0.10115009,0.97995148,0.154513909,-12958,7544,13388,-626,438,81,991,135,-535,1
389858172,1071,305,582,-0.967225403,-0.216496417,0.096687103,0.983112428,0.135206982,-14388,8350,17018,-580,142,2,997,141,-523,1
389878172,1011,306,818,-0.972809717,-0.192673374,0.092457866,0.985754589,0.117685599,-15522,8202,20116,-488,-6,-8,993,137,-523,1
389898172,1079,373,747,-0.977194499,-0.172339024,0.08651558,0.987490553,0.106571099,-14606,9126,18252,-243,35,-61,987,139,-556,1
389918172,1073,433,385,-0.979938412,-0.162578398,0.074231519,0.987706969,0.114013221,-14836,9766,11924,502,131,-43,999,153,-540,1
389938172,907,226,262,-0.979026403,-0.167573202,0.074636482,0.984952543,0.135966893,-17576,6060,9684,1045,149,-142,985,157,-528,1
389958172,898,-47,-14,-0.978229901,-0.172180356,0.074550223,0.981116945,0.161967902,-17694,1690,5422,1214,118,-157,979,155,-528,1
389978172,874,-169,-294,-0.978109013,-0.173250945,0.073739362,0.975935016,0.191593183,-18076,-288,978,1371,-37,-159,991,163,-527,1
389998172,820,-360,-389,-0.977924107,-0.175175244,0.071508243,0.970287923,0.219563,-18934,-3418,-480,1320,4,-92,983,181,-540,1
390018172,863,-457,-418,-0.97759236,-0.178385938,0.067509219,0.965653311,0.240509784,-18234,-5102,-840,1048,81,27,969,175,-561,1
390038172,1131,-281,-175,-0.977385905,-0.180375794,0.065651752,0.962526549,0.253489122,-13942,-2516,3140,751,91,207,989,197,-556,1
390058172,1855,-624,-169,-0.978658672,-0.177187921,0.054232943,0.961885106,0.258587262,-2394,-8208,3100,450,-138,444,975,191,-556,1
390078172,2223,-541,143,-0.981828472,-0.162068607,0.044490968,0.965324381,0.247262238,3392,-7196,7598,-240,-593,497,987,183,-553,1
390098172,2518,-471,309,-0.986333201,-0.133857155,0.039085433,0.971644234,0.221568905,7952,-6254,9344,-867,-1102,406,971,175,-575,1
390118172,2694,-201,263,-0.991287852,-0.092366653,0.037752029,0.978804573,0.187126141,10596,-1980,7256,-1250,-1636,247,977,169,-586,1
390138172,2698,42,-203,-0.994796835,-0.042728284,0.038379153,0.984114267,0.155931672,10540,1930,-1824,-1122,-1963,92,965,163,-610,1
390158172,2675,152,-691,-0.995768061,0.008975288,0.039935746,0.987247404,0.133522075,10142,3742,-11328,-758,-2057,-21,987,155,-644,1
390178172,2235,223,-849,-0.994549198,0.049764639,0.044094866,0.988035023,0.126134798,3154,5012,-15204,-135,-1637,-152,947,171,-668,1
390198172,2038,-14,-726,-0.992113529,0.082399067,0.051920371,0.98784378,0.12461975,88,1478,-14312,123,-1318,-295,957,141,-726,1
390218172,1814,-254,-737,-0.989337048,0.108321544,0.058354061,0.988061534,0.119722424,-3402,-2152,-15340,-13,-1038,-253,945,163,-729,1
390238172,1502,-4,-563,-0.988840492,0.116433879,0.056728088,0.990258895,0.10329096,-8310,1840,-13274,-525,-847,-46,951,157,-763,1
390258172,1179,51,-473,-0.988868035,0.11803218,0.052978085,0.992011987,0.086669646,-13484,2636,-11896,-548,-592,-14,943,149,-755,1
390278172,994,-27,-425,-0.987149805,0.130459726,0.051535065,0.993101174,0.069449512,-16458,1256,-11066,-552,-448,-3,941,125,-760,1
390298172,904,-74,-467,-0.986028295,0.140014313,0.04831148,0.994496681,0.046937406,-17854,400,-12058,-763,-335,34,955,121,-777,1
390318172,652,3,-462,-0.985289812,0.146164073,0.045480948,0.995459795,0.018966807,-21864,1538,-12180,-979,-190,-20,931,135,-787,1
390338172,627,30,-414,-0.98475761,0.150735533,0.042160408,0.995616127,-0.01101123,-22246,1862,-11560,-1061,-124,-19,929,119,-795,1
390358172,584,-50,-423,-0.984936342,0.150250431,0.040049947,0.995021375,-0.036718341,-22936,512,-11694,-883,71,-44,917,109,-777,1
390378172,634,-144,-420,-0.985909456,0.143505855,0.039407781,0.994021848,-0.056306005,-22168,-1014,-11424,-630,318,-63,921,111,-798,1
390398172,653,-157,-551,-0.987634948,0.130597245,0.040776284,0.992873387,-0.072866444,-21918,-1176,-13098,-497,565,-119,927,109,-772,1
390418172,600,-260,-732,-0.990075683,0.109115256,0.042466991,0.99150914,-0.087917149,-22850,-2768,-15286,-439,915,-115,947,83,-777,1
390438172,495,1,-729,-0.992613617,0.083186341,0.040295767,0.989945512,-0.104616733,-24614,1336,-14388,-524,1095,50,947,85,-746,1
390458172,503,48,-422,-0.993942959,0.065131282,0.03914264,0.988755668,-0.115368057,-24526,2050,-8886,-280,764,41,971,87,-742,1
390478172,509,-57,-139,-0.994393356,0.055155104,0.041124552,0.986831479,-0.129474277,-24446,436,-4032,-414,441,-87,987,77,-714,1
390498172,810,-129,-36,-0.994906111,0.041744422,0.04351919,0.983254934,-0.153176146,-19650,-638,-1942,-805,596,-115,967,105,-718,1
390518172,1457,-114,-31,-0.995299775,0.030805787,0.043270434,0.980170663,-0.171656968,-9306,-416,-1520,-598,469,23,991,85,-710,1
390538172,1791,175,315,-0.995274521,0.028343489,0.044915663,0.975448716,-0.195830777,-3966,4270,4112,-835,156,-67,989,71,-688,1
390558172,1529,625,662,-0.994867846,0.024920417,0.054857551,0.96759291,-0.22896676,-8148,11796,9782,-1207,218,-409,987,77,-686,1
390578172,1396,474,1006,-0.994778415,0.012413438,0.060117193,0.958758963,-0.262051005,-10272,9552,15694,-1223,599,-209,991,105,-682,1
390598172,1233,573,1132,-0.995082211,0.012646627,0.054620334,0.950269261,-0.292024599,-12892,10956,17702,-1103,74,238,979,67,-673,1
390618172,1434,618,759,-0.995540246,0.020461371,0.042821329,0.942752823,-0.316932449,-9688,11290,11478,-901,-255,492,999,65,-687,1
390638172,1680,723,388,-0.995812906,0.016382141,0.037838789,0.939591218,-0.326738123,-5752,12808,5670,-258,195,222,979,53,-693,1
390658172,218,876,1004,-0.994813491,0.060577458,0.017040001,0.933869917,-0.344178692,-29136,15214,14802,-560,-865,62,999,57,-678,1
390678172,1257,1171,-685,-0.995678231,0.032358965,0.031636223,0.939254746,-0.32828554,-12526,19774,-12014,871,1141,-535,1007,51,-646,1
390698172,1932,-870,-1753,-0.994715106,-0.01190594,0.059934356,0.955656856,-0.273059964,-1732,-11956,-27614,2512,1701,-1106,1011,73,-661,1
390718172,2231,-1136,27,-0.993707692,-0.00331782,0.075809946,0.964822682,-0.234555859,3114,-15690,554,1762,-448,-638,1017,113,-655,1
390738172,2303,-1183,-9,-0.991608929,-0.024687186,0.095613694,0.961887632,-0.239180097,4344,-15800,670,-65,903,-773,1029,121,-654,1
390758172,2257,-416,388,-0.99068244,-0.012403192,0.107370257,0.952042265,-0.271027269,3634,-3144,6622,-1200,-353,-419,1043,139,-662,1
390778172,1838,258,859,-0.990876488,0.008870093,0.106903661,0.941673823,-0.30502999,-3074,7626,13462,-1280,-704,53,1027,141,-662,1
390798172,1579,22,311,-0.990604088,0.023328945,0.107952361,0.931501677,-0.334285373,-7196,4002,4386,-1069,-234,-175,1043,147,-677,1
390818172,1323,499,-310,-0.991180442,0.021691214,0.102668104,0.931993527,-0.334512899,-11264,11768,-5900,137,-203,-288,1035,129,-682,1
390838172,1565,-77,-1096,-0.990380812,0.019960873,0.110225298,0.941199638,-0.305270398,-7424,2372,-18186,1411,-51,-258,1033,135,-667,1
390858172,1417,-431,-1138,-0.989656586,0.016009029,0.117186531,0.947993739,-0.281026343,-9766,-3064,-18730,1190,55,-240,1015,151,-684,1
390878172,1201,-336,-970,-0.989409244,-0.013593394,0.121683384,0.95091066,-0.270783449,-13216,-1512,-15672,522,434,-11,1047,173,-700,1
390898172,983,-311,-763,-0.987694681,-0.046980057,0.126512863,0.950747838,-0.269225532,-16680,-976,-11210,138,705,-1,1039,173,-680,1
390918172,787,-238,-503,-0.986059202,-0.070153834,0.125271617,0.949502224,-0.272628266,-19736,288,-5736,6,994,84,1051,169,-660,1
390938172,793,-352,-260,-0.983898632,-0.095985124,0.123902937,0.948645052,-0.27589521,-19562,-1582,-1010,27,1092,95,1039,159,-633,1
390958172,1220,-400,7,-0.981664304,-0.113965074,0.126133284,0.946357381,-0.282703364,-12662,-2462,3966,-92,927,196,1063,163,-626,1
390978172,1451,-348,493,-0.9815888,-0.11651329,0.124502605,0.940614089,-0.301818544,-8914,-1606,12124,-554,729,320,1063,161,-608,1
390998172,1366,-95,851,-0.982959688,-0.108594099,0.121117034,0.930455517,-0.332803793,-10284,2474,17790,-1046,600,275,1061,157,-625,1
391018172,1095,335,951,-0.985086607,-0.098739387,0.111927287,0.921306526,-0.359978918,-14656,9314,19152,-890,609,160,1061,149,-589,1
391038172,696,466,603,-0.983477091,-0.108235929,0.116691915,0.916526629,-0.370333375,-21096,11270,13196,-321,458,-115,1047,155,-581,1
391058172,616,547,336,-0.981286215,-0.117722902,0.125164383,0.917821517,-0.364281418,-22304,12842,9234,365,377,-344,1057,169,-594,1
391078172,720,307,128,-0.979691591,-0.126547653,0.129122153,0.924935434,-0.344718132,-20588,9130,6194,980,266,-240,1063,165,-588,1
391098172,925,-79,20,-0.979044752,-0.133680049,0.126733601,0.933928387,-0.320808474,-17288,2878,4702,1203,169,-17,1069,167,-580,1
391118172,1319,-437,535,-0.980737031,-0.120455638,0.127264433,0.939879723,-0.302908547,-11000,-3016,12968,1020,-65,114,1077,185,-593,1
391138172,1714,-340,815,-0.982661406,-0.109941708,0.121740716,0.942904716,-0.295600789,-4782,-1460,16642,504,-465,212,1065,179,-601,1
391158172,1993,15,803,-0.985304743,-0.088237047,0.118433164,0.9435392,-0.294847013,-404,4112,15740,211,-889,158,1065,189,-622,1
391178172,2474,-216,603,-0.988219809,-0.053424226,0.116473648,0.944570851,-0.292600261,7192,354,11404,271,-1432,97,1045,177,-635,1
391198172,2766,-366,392,-0.989785615,-0.004433725,0.116165659,0.944615897,-0.292278979,11798,-2058,6436,173,-1992,41,1065,185,-671,1
391218172,2583,-414,-65,-0.98864672,0.052023357,0.116490989,0.942345824,-0.299588496,8904,-2814,-2726,-143,-2267,8,1045,199,-709,1
391238172,2299,-302,-552,-0.984254504,0.108792465,0.115957049,0.940496182,-0.305387098,4504,-1038,-12378,-86,-2291,29,1043,185,-758,1
391258172,2054,-151,-796,-0.977226401,0.161152711,0.116135291,0.938970704,-0.310020156,818,1384,-18002,-34,-2129,-7,1017,173,-827,1
391278172,1930,-645,-977,-0.969346803,0.201192131,0.120459312,0.938743118,-0.30885944,-900,-6380,-22216,233,-1663,-140,981,163,-833,1
391298172,2018,-609,-879,-0.963407638,0.22771601,0.121724551,0.935638798,-0.317621754,712,-5764,-21524,-194,-1057,-103,967,163,-861,1
391318172,1703,-282,-705,-0.958749108,0.24901263,0.117287494,0.928534292,-0.339171398,-4178,-678,-19438,-774,-771,-17,973,179,-873,1
391338172,1099,-102,-633,-0.962618098,0.238262629,0.110246336,0.918178324,-0.36981778,-13790,1972,-18590,-1253,-219,-44,973,131,-902,1
391358172,875,50,-532,-0.963732332,0.236180915,0.10165769,0.90264073,-0.406785624,-17608,4128,-16234,-1516,294,-24,957,107,-886,1
391378172,724,-25,-544,-0.966734448,0.228129907,0.090634122,0.887729945,-0.440521332,-20110,2566,-16172,-1397,503,118,949,109,-897,1
391398172,508,23,-661,-0.972001508,0.209153084,0.077945931,0.871530317,-0.473604025,-23742,2922,-17418,-1412,940,204,965,85,-877,1
391418172,463,145,-634,-0.977463452,0.186098976,0.066751171,0.856124831,-0.502472866,-24638,4506,-16236,-1228,1069,214,971,57,-856,1
391438172,639,146,-596,-0.982489398,0.1615267,0.054278196,0.842015844,-0.526992448,-21984,4112,-14822,-1057,1100,331,987,51,-834,1
391458172,754,-8,-692,-0.986387603,0.13977216,0.041094242,0.832483977,-0.543002196,-20268,1218,-15650,-663,944,445,999,29,-808,1
391478172,768,-27,-689,-0.989619445,0.116279051,0.034229849,0.827618904,-0.55083055,-20146,688,-14834,-244,987,259,1001,-13,-792,1
391498172,812,-127,-498,-0.992203774,0.090842454,0.034878687,0.823287256,-0.557311539,-19528,-892,-10946,-148,1058,-28,1033,7,-756,1
391518172,770,-189,-257,-0.99357317,0.071823014,0.037205955,0.810810801,-0.574945981,-20248,-1806,-6462,-707,818,-136,1041,29,-758,1
391538176,1050,-51,-38,-0.994612159,0.05548906,0.035727064,0.795211637,-0.596288601,-15802,354,-2422,-912,714,23,1053,-21,-740,1
391558176,1519,96,799,-0.994299782,0.064377006,0.031650588,0.771926975,-0.626347918,-8290,2574,10680,-1387,-301,107,1051,-29,-761,1
391578176,1529,418,1193,-0.993440133,0.080138689,0.022584136,0.728654731,-0.676280284,-8128,7428,16492,-2541,-557,209,1051,-31,-724,1
391598176,1396,1125,1087,-0.9937266,0.077920524,0.013528931,0.686753154,-0.71870175,-10260,18444,14866,-2280,148,211,1067,-59,-706,1
391618176,1322,1178,1175,-0.993487608,0.081832431,-0.000195343,0.661656955,-0.74181235,-11418,18840,16126,-1264,-139,477,1049,-73,-719,1
391638176,1312,929,916,-0.992653932,0.090914749,-0.013975934,0.646482974,-0.754943281,-11542,14406,11678,-696,-367,517,1055,-75,-702,1
391658176,-389,1087,320,-0.991930626,0.085093256,-0.051205818,0.633700155,-0.764084209,26748,16608,2610,-517,581,376,1039,-81,-709,1
391678176,1455,844,-2,-0.994264944,0.053616336,-0.045958411,0.656674268,-0.744830925,-9336,12450,-1822,1432,1290,-664,1049,-77,-688,1
391698176,1727,-644,-1443,-0.996081065,0.034152191,-0.012594176,0.705877375,-0.700101037,-5056,-10718,-24164,2920,882,-1217,1055,-75,-707,1
391718176,2562,-773,-263,-0.99604973,0.036387509,0.003984277,0.74776694,-0.655427191,8316,-12240,-5372,2670,-70,-565,1083,-23,-719,1
391738176,1806,-1156,-304,-0.995718358,0.02420315,0.036799801,0.755959801,-0.645008117,-3744,-17290,-5650,737,493,-1290,1083,35,-736,1
391758176,1524,-160,-256,-0.994760938,0.012447095,0.060623266,0.753301565,-0.646390863,-8218,-618,-4678,54,279,-889,1103,61,-727,1
391778176,2604,-270,319,-0.994404271,0.025394171,0.062933928,0.748841055,-0.651281245,9076,-2260,4270,-105,-499,-71,1109,89,-726,1
391798176,2290,-119,485,-0.994410384,0.027278647,0.062382422,0.730796419,-0.671454497,4048,138,6866,-937,3,24,1101,69,-739,1
391818176,1467,579,-206,-0.994965244,0.019607296,0.055318383,0.714532044,-0.689210072,-9110,11482,-4080,-820,210,-212,1087,69,-747,1
391838176,1485,-208,-619,-0.994750237,0.002839996,0.064519409,0.715514494,-0.687899891,-8834,-1282,-10380,210,219,-263,1089,65,-727,1
391858176,1543,-423,-844,-0.994340869,-0.003379555,0.066990798,0.716550566,-0.686045352,-7906,-4574,-13388,242,267,-73,1107,63,-740,1
391878176,1416,-216,-900,-0.994008182,-0.030525455,0.068701765,0.713128036,-0.690215433,-9926,-1274,-13906,-88,506,44,1111,69,-721,1
391898176,1279,-278,-778,-0.992259789,-0.060900066,0.071826615,0.709707689,-0.693319473,-12090,-2212,-10898,-64,710,54,1097,61,-695,1
391918176,1186,-354,-657,-0.988683287,-0.097267801,0.078604319,0.704033341,-0.698230254,-13480,-3268,-7692,-181,1060,-2,1107,63,-699,1
391938176,1032,-318,-382,-0.983946567,-0.129892934,0.08697699,0.696003692,-0.704854945,-15788,-2432,-2048,-291,1136,-26,1117,69,-674,1
391958176,1094,-330,-127,-0.97955364,-0.153841102,0.095236437,0.686354667,-0.712984452,-14618,-2354,3060,-355,1101,3,1113,45,-641,1
391978176,1257,-186,38,-0.976822786,-0.168887407,0.097258531,0.674208341,-0.724163415,-11876,154,6340,-478,941,119,1133,41,-630,1
391998176,1323,29,230,-0.976153675,-0.174638601,0.092941253,0.658795945,-0.738590458,-10756,3614,9742,-634,752,216,1127,47,-606,1
392018176,1208,110,436,-0.976666562,-0.174688416,0.088799354,0.640993841,-0.754783021,-12572,4824,13182,-745,705,170,1115,41,-601,1
392038176,1041,45,812,-0.978211667,-0.164949918,0.08998073,0.62540574,-0.767418163,-15266,3758,19120,-587,588,4,1147,51,-575,1
392058176,878,214,837,-0.979907095,-0.154950514,0.08927659,0.613212585,-0.77716358,-17916,6568,19230,-418,612,-121,1141,51,-555,1
392078176,1135,385,929,-0.982913382,-0.13684947,0.08652091,0.606984802,-0.782337375,-13916,9296,20038,-127,161,-196,1133,47,-567,1
392098176,1520,310,1023,-0.983511923,-0.130769942,0.089214336,0.611894125,-0.778198678,-7910,7880,20652,407,-260,-117,1123,53,-572,1
392118176,1153,401,500,-0.986827422,-0.110814052,0.080668602,0.621534348,-0.771622874,-13802,9422,12094,670,-275,-148,1127,67,-588,1
392138176,965,404,-99,-0.98684275,-0.106926579,0.084554567,0.642200528,-0.753951091,-16908,9234,1926,1238,-236,-255,1133,75,-590,1
392158176,642,135,-250,-0.986502593,-0.106873203,0.088736346,0.670765789,-0.728320504,-22068,5062,-488,1694,-125,-312,1153,87,-589,1
392178176,877,-338,-475,-0.986236963,-0.109628694,0.088173914,0.699674949,-0.700790383,-18300,-2522,-3996,1777,-22,-133,1149,99,-613,1
392198176,1117,-624,-191,-0.985124692,-0.114060888,0.09486203,0.721088242,-0.678005638,-14458,-7268,648,1446,30,92,1157,109,-640,1
392218176,1383,-762,183,-0.985357769,-0.107241573,0.100809046,0.73310674,-0.6642603,-10178,-9276,6652,952,-82,170,1135,129,-638,1
392238176,1821,-874,335,-0.986968473,-0.095328385,0.096658415,0.736155745,-0.661360251,-3212,-10822,8486,348,-494,177,1133,107,-644,1
392258176,2187,-787,746,-0.989432536,-0.068492698,0.096287815,0.72632838,-0.672390001,2564,-9442,14182,-432,-1037,94,1145,113,-660,1
392278176,2469,-773,774,-0.991275631,-0.022707321,0.09957279,0.705443181,-0.693482624,6994,-9110,13150,-1051,-1738,-44,1145,127,-672,1
392298176,2857,-554,468,-0.990175158,0.043564837,0.106037538,0.674966216,-0.722217668,13218,-5392,6102,-1535,-2522,-246,1117,133,-735,1
392318176,2675,-126,30,-0.984585196,0.114493651,0.107566578,0.645957828,-0.747966008,10486,1506,-3230,-1405,-2727,-153,1087,105,-808,1
392338176,2402,-158,-362,-0.975044018,0.179353764,0.107743756,0.626127908,-0.764493683,6442,998,-11640,-873,-2555,-132,1065,101,-858,1
392358176,2457,-523,-692,-0.963175558,0.235206267,0.108819832,0.611848198,-0.775776425,7722,-4808,-18762,-551,-2244,-168,1025,87,-851,1
392378176,2196,-606,-563,-0.949266102,0.286314664,0.109995205,0.591290027,-0.791270413,4004,-6098,-18374,-837,-2038,-290,1003,81,-900,1
392398176,1684,-623,-825,-0.937028937,0.324692113,0.109791756,0.564739443,-0.810478868,-3778,-6376,-23832,-1109,-1492,-369,965,75,-947,1
392418176,1267,-54,-431,-0.932668582,0.340347707,0.102022425,0.534881422,-0.832250254,-10084,2512,-18614,-1404,-1253,-253,969,65,-929,1
392438176,1051,67,-317,-0.930813424,0.349399885,0.088064252,0.50318123,-0.853423186,-13480,4082,-17060,-1488,-941,-157,941,43,-949,1
392458176,846,-2,-437,-0.925298948,0.365342125,0.077934452,0.472715218,-0.870544696,-16812,2522,-18948,-1319,-538,-99,931,-9,-960,1
392478176,584,-35,-492,-0.923502065,0.37204146,0.066793195,0.443535514,-0.886555213,-20928,1628,-20060,-1263,-172,-49,925,-21,-959,1
392498176,456,-10,-530,-0.926304752,0.3669264,0.055008409,0.413841439,-0.901549565,-23068,1642,-20502,-1270,328,-25,921,-27,-955,1
392518176,232,59,-561,-0.932542037,0.351859264,0.046611578,0.385473948,-0.914479919,-26860,2470,-20502,-1143,739,-107,923,-59,-951,1
392538176,329,91,-666,-0.942465886,0.325098645,0.03935244,0.358985374,-0.925571414,-25634,2744,-21304,-1036,1221,-87,943,-63,-941,1
392558176,463,-52,-866,-0.95432448,0.289378328,0.027558989,0.33483104,-0.934961164,-23884,70,-23328,-984,1577,163,969,-85,-896,1
392578176,376,17,-991,-0.966557022,0.246020894,0.011252384,0.314428067,-0.942248957,-25682,640,-23902,-863,1861,434,981,-85,-859,1
392598176,612,210,-1066,-0.981370796,0.178682229,-0.003328978,0.299521651,-0.947882691,-22204,3412,-23786,-551,1697,268,1019,-115,-832,1
392618176,729,151,-651,-0.985586826,0.150916738,-0.006371014,0.281028878,-0.952700647,-20656,2206,-15346,-627,1164,25,1009,-107,-808,1
392638176,761,-179,-332,-0.988399358,0.130952176,-0.008034124,0.239558773,-0.964011388,-20232,-3130,-9592,-1576,814,-145,1023,-113,-795,1
392658176,1333,-27,375,-0.989761233,0.119875357,-0.010355166,0.197116315,-0.973559633,-11140,-802,2236,-1610,637,-56,1031,-121,-763,1
392678176,1965,672,1104,-0.990116775,0.116081079,-0.015698906,0.162545238,-0.979801692,-1016,10236,13866,-1279,149,81,1047,-115,-763,1
392698176,2127,1145,1052,-0.991484439,0.104256487,-0.008619747,0.134551968,-0.984123029,1534,18038,13420,-948,480,-380,1051,-139,-724,1
392718176,1669,888,1359,-0.993266655,0.084101452,-0.005136205,0.127533237,-0.984890018,-5852,14040,18992,-109,835,-138,1049,-137,-707,1
392738176,1951,1054,2289,-0.991237625,0.105967134,-0.013871049,0.123553328,-0.985473692,-1268,16408,-32386,-31,-886,367,1069,-127,-716,1
392758176,171,1598,404,-0.993175816,0.06205423,-0.05927438,0.104786281,-0.986049676,-29890,24556,4678,-662,2064,656,1061,-153,-729,1
392778176,1776,1080,-1347,-0.995865136,0.013127536,-0.037951132,0.157811075,-0.979965717,-4268,16034,-21938,2361,2111,-763,1073,-135,-707,1
392798176,2025,-921,-65,-0.996610019,0.005274793,-0.00050132,0.24636643,-0.962292351,-342,-14754,-1136,3843,402,-1470,1111,-75,-680,1
392818176,2125,-1790,583,-0.996434493,0.002262902,0.019179047,0.295015154,-0.948380658,1324,-28014,9274,2220,113,-770,1109,-71,-699,1
392838176,1509,-303,-813,-0.995338026,-0.025102332,0.041505253,0.289620638,-0.949305812,-8484,-3490,-12178,-72,1131,-875,1125,-37,-714,1
392858176,1215,284,-886,-0.994520592,-0.045000779,0.049534203,0.289923282,-0.949450616,-13152,6388,-13242,125,153,-571,1117,-21,-723,1
392878176,2230,-748,-258,-0.994288739,-0.040273327,0.051718004,0.289070014,-0.948932398,3086,-10274,-2802,127,-166,-59,1117,-19,-744,1
392898176,3103,-262,843,-0.994508877,-0.033881772,0.05356598,0.254295409,-0.958813462,17048,-2440,14606,-1307,-174,15,1115,-19,-718,1
392918176,1717,834,282,-0.993772784,-0.038126845,0.062377915,0.218246458,-0.966992859,-5108,15386,5772,-1351,274,-269,1119,-23,-719,1
392938176,1407,154,-361,-0.99325371,-0.046630414,0.066108865,0.209669799,-0.968854189,-10032,4796,-4452,-224,135,-315,1121,-15,-695,1
392958176,1314,-90,-761,-0.992017342,-0.06872848,0.06759409,0.22327126,-0.966134848,-11508,774,-10360,690,337,-64,1103,-21,-715,1
392978176,1367,-431,-1011,-0.990642849,-0.083066458,0.066443322,0.242632855,-0.960973674,-10606,-4720,-13442,974,554,10,1113,15,-686,1
392998176,1348,-628,-763,-0.987231525,-0.111628385,0.075313414,0.251694381,-0.95823491,-10844,-7884,-8902,519,715,8,1129,9,-691,1
393018176,1272,-590,-563,-0.982195906,-0.142969325,0.08492218,0.244820349,-0.959033564,-11900,-6966,-4554,-139,1029,55,1127,7,-692,1
393038176,1045,-241,-395,-0.976301365,-0.175282793,0.090876928,0.229645461,-0.962225543,-15322,-1002,-740,-491,1190,41,1147,-21,-644,1
393058176,897,-91,-290,-0.970295217,-0.204071928,0.093579318,0.217632558,-0.964679081,-17456,1604,2058,-348,1259,19,1135,9,-628,1
393078176,1223,-186,-117,-0.965322403,-0.225113394,0.095865565,0.211130535,-0.965877788,-12048,106,5638,-90,1080,61,1165,9,-590,1
393098176,1496,-365,55,-0.962292518,-0.236217443,0.099742807,0.201466246,-0.967635641,-7550,-2718,8880,-189,844,133,1149,-7,-598,1
393118176,1389,-310,177,-0.960135886,-0.242178518,0.106023727,0.181353806,-0.970957594,-9168,-1608,11118,-622,790,117,1147,-13,-571,1
393138176,1288,-127,362,-0.958822031,-0.244340494,0.112585383,0.154666364,-0.974795796,-10694,1652,14284,-897,839,29,1151,-17,-548,1
393158176,1292,97,519,-0.959158283,-0.241720574,0.115184066,0.130186383,-0.978006804,-10600,5476,16788,-801,740,-28,1157,11,-548,1
393178176,1054,537,517,-0.961085161,-0.236785235,0.10948096,0.111602744,-0.980967227,-14436,12654,16580,-586,600,-157,1171,-13,-523,1
393198176,834,708,797,-0.96482862,-0.225237953,0.100364205,0.105803043,-0.982487202,-18048,15168,20804,-59,415,-250,1149,7,-518,1
393218176,1373,340,735,-0.969429713,-0.208667133,0.092585763,0.120183887,-0.98168266,-9634,8746,19200,799,21,-153,1151,27,-465,1
393238176,1585,77,716,-0.971134692,-0.200883508,0.091594805,0.142270461,-0.978733547,-6470,4228,18042,1058,-395,-120,1161,39,-492,1
393258176,1055,115,267,-0.972388137,-0.193744356,0.094070555,0.16318598,-0.975265184,-14990,4916,10620,987,-365,-244,1145,59,-512,1
393278176,895,302,84,-0.973177839,-0.189559437,0.094941206,0.187574375,-0.970858313,-17576,7936,7558,1144,-259,-204,1151,67,-552,1
393298176,901,174,-306,-0.973833226,-0.187917339,0.091080832,0.21983964,-0.964398341,-17506,5764,1268,1506,-185,-75,1149,75,-527,1
393318176,883,-56,-590,-0.974598315,-0.186321095,0.086317522,0.252125066,-0.956967488,-17820,1928,-3328,1521,-180,-39,1143,83,-551,1
393338176,1143,-387,-394,-0.974191317,-0.188297415,0.086520527,0.280813294,-0.94895179,-13686,-3576,-252,1386,-170,58,1141,101,-545,1
393358176,1594,-775,-80,-0.975695405,-0.184722669,0.076955264,0.298559871,-0.944375761,-6474,-9882,4774,967,-206,268,1137,87,-588,1
393378176,1950,-925,360,-0.978884403,-0.170891399,0.068529839,0.298278112,-0.945108488,-880,-12558,11358,207,-565,368,1143,91,-587,1
393398176,2209,-672,828,-0.983860452,-0.140894629,0.066818191,0.271361042,-0.953260995,3090,-8566,17878,-954,-1148,283,1133,87,-592,1
393418176,2377,-130,855,-0.990077093,-0.087735683,0.069364965,0.236257404,-0.962447762,5558,194,16586,-1314,-2068,100,1103,87,-622,1
393438176,2503,-198,504,-0.993780408,-0.021954501,0.071041792,0.202477973,-0.969898129,7438,-840,8826,-1243,-2572,42,1107,97,-625,1
393458176,2224,-309,-240,-0.993616231,0.042845182,0.066512874,0.182556793,-0.974116936,2986,-2764,-5210,-668,-2570,207,1099,71,-702,1
393478180,2196,-623,-830,-0.990219535,0.095688818,0.064417051,0.176495984,-0.97531468,2664,-7858,-16396,-93,-2126,96,1075,85,-732,1
393498180,2488,-703,-897,-0.985150203,0.138100361,0.067903909,0.17892405,-0.974723415,7512,-9024,-18868,280,-1737,-100,1057,73,-811,1
393518180,2446,-1057,-837,-0.978723025,0.174339747,0.078053212,0.163832253,-0.976528967,7050,-14358,-19096,-384,-1440,-473,1053,65,-821,1
393538180,1614,-471,-796,-0.974324716,0.19776777,0.078808041,0.130791863,-0.981531182,-6116,-4956,-19212,-1165,-856,-251,1041,83,-821,1
393558180,1343,-11,-521,-0.974386383,0.202074461,0.07044523,0.090294743,-0.987410756,-10332,2182,-15474,-1563,-702,-53,1031,69,-842,1
393578180,1063,293,-517,-0.97637514,0.197222706,0.054097324,0.053443195,-0.99102922,-14870,6734,-15282,-1414,-385,26,1019,41,-851,1
393598180,870,253,-468,-0.975319251,0.202687137,0.047681314,0.023478553,-0.991811819,-18060,5610,-14116,-1082,-138,42,1005,11,-821,1
393618180,616,24,-600,-0.975633372,0.202071186,0.043171971,-0.003049154,-0.992237587,-22122,1798,-16220,-929,88,-8,981,-7,-848,1
393638180,256,-97,-643,-0.977336178,0.193848979,0.041448429,-0.032541892,-0.991759444,-27940,-194,-16636,-1026,404,-137,1003,13,-827,1
393658180,244,-66,-647,-0.980256654,0.178819142,0.040029136,-0.065763928,-0.990301408,-28230,254,-16206,-1177,687,-162,1001,-15,-811,1
393678180,429,-162,-700,-0.983938513,0.158530189,0.031845455,-0.103052376,-0.987349275,-25398,-1548,-16382,-1392,906,105,1003,-41,-781,1
393698180,491,-280,-838,-0.987905506,0.133199288,0.02098908,-0.143584665,-0.982618475,-24538,-3794,-17760,-1541,1095,228,1033,-37,-779,1
393718180,631,71,-1094,-0.994068611,0.077913098,0.010125676,-0.188691847,-0.975795299,-22416,1526,-20912,-1733,1215,179,1021,-41,-763,1
393738180,562,286,-1125,-0.996624984,0.027010625,-0.004163644,-0.238453828,-0.964895064,-23664,4652,-19712,-1921,1042,215,1043,-69,-719,1
393758180,664,160,-681,-0.996512074,0.005537745,-0.011855675,-0.288473593,-0.950431699,-22070,2168,-11042,-1952,881,317,1061,-83,-691,1
393778180,867,8,18,-0.996383864,-0.010896178,-0.014713198,-0.334256563,-0.93534846,-18800,-356,664,-1797,653,158,1047,-91,-672,1
393798180,1635,225,459,-0.996247413,-0.011604208,-0.021433026,-0.367266459,-0.922792727,-6494,3006,8008,-1274,360,192,1057,-95,-650,1
393818180,2020,641,558,-0.996204121,-0.019144455,-0.018190031,-0.389766403,-0.913691655,-330,9658,9556,-826,297,-84,1047,-107,-634,1
393838180,1821,708,995,-0.995946821,-0.033017524,-0.005048024,-0.411636544,-0.90425303,-3508,11160,17008,-820,565,-474,1051,-109,-634,1
393858180,1453,711,1384,-0.995427456,-0.043726401,-0.003619794,-0.433053806,-0.894084388,-9380,11256,23580,-800,446,12,1057,-111,-617,1
393878180,1467,1113,1577,-0.995974001,-0.030197695,-0.01381075,-0.458852816,-0.881250629,-9174,17352,26224,-991,-552,492,1071,-89,-641,1
393898180,-516,1501,901,-0.995582778,-0.031993903,-0.02794309,-0.498015489,-0.859400012,24636,23098,15482,-1636,48,668,1031,-115,-620,1
393918180,1600,1932,220,-0.99476495,-0.055701459,-0.01559651,-0.473657895,-0.873390721,-7010,30398,5356,1279,1001,-523,1053,-143,-598,1
393938180,2062,-470,-1724,-0.992324254,-0.087637419,0.011617363,-0.382495016,-0.916725412,372,-7142,-24606,4176,1325,-1379,1065,-67,-631,1
393958180,2400,-1467,332,-0.99267035,-0.078807093,0.033004822,-0.282269835,-0.951848805,5774,-22390,7996,4389,-445,-1211,1063,-43,-612,1
393978180,1578,-1260,-411,-0.989485798,-0.09927314,0.06054563,-0.258494794,-0.957256988,-7192,-18178,-3310,1044,807,-1175,1043,49,-674,1
393998180,882,198,-901,-0.986091549,-0.12351403,0.07418615,-0.267053099,-0.954583669,-18252,5802,-10972,-344,282,-731,1069,53,-646,1
394018180,2286,-261,-550,-0.98665726,-0.116888443,0.072865885,-0.268453214,-0.953643598,4232,-1790,-4960,109,-241,90,1079,63,-649,1
394038180,2966,-593,186,-0.986808361,-0.116305385,0.072261821,-0.287033526,-0.948346946,15116,-7122,6786,-614,43,149,1063,67,-657,1
394058180,2083,403,124,-0.985737585,-0.119870041,0.080242033,-0.306998558,-0.941422824,1020,9072,5916,-729,230,-186,1067,75,-670,1
394078180,1602,-29,-527,-0.983454635,-0.132563833,0.087542813,-0.317903714,-0.937173624,-6616,2470,-4268,-377,356,-287,1077,69,-639,1
394098180,1531,-58,-601,-0.981021959,-0.149294563,0.08877717,-0.32548579,-0.93469956,-7678,2028,-4942,-200,460,-33,1079,55,-638,1
394118180,1424,-113,-814,-0.977010991,-0.17531606,0.085040472,-0.326130729,-0.934921458,-9290,986,-7604,128,682,172,1051,71,-624,1
394138180,1335,-284,-806,-0.970311418,-0.208470017,0.085404984,-0.32342805,-0.935782105,-10516,-1846,-6364,267,997,115,1087,51,-600,1
394158180,1326,-549,-577,-0.961795114,-0.240675213,0.092734382,-0.325364985,-0.934017928,-10374,-6012,-1472,61,1201,82,1069,69,-596,1
394178180,1261,-436,-262,-0.953756778,-0.267587082,0.101107742,-0.337743416,-0.928827405,-11090,-3888,4652,-372,1288,104,1069,59,-566,1
394198180,1152,-201,-113,-0.946752302,-0.289708475,0.105420065,-0.354842249,-0.922016116,-12552,166,7882,-557,1275,148,1071,59,-541,1
394218180,1081,35,18,-0.938424114,-0.314475404,0.107833511,-0.371636562,-0.915075088,-13466,4086,10604,-567,1162,164,1095,37,-534,1
394238180,1102,80,252,-0.938084548,-0.316870565,0.103604139,-0.387138069,-0.909138683,-12928,4824,14904,-416,822,207,1087,47,-490,1
394258180,1070,-140,274,-0.939426528,-0.313320892,0.103170019,-0.392447557,-0.907051984,-13496,1096,15154,31,537,143,1073,51,-486,1
394278180,965,-56,285,-0.935333787,-0.324708724,0.103977092,-0.395848934,-0.905355696,-15216,2504,15202,6,523,49,1099,45,-464,1
394298180,978,-112,259,-0.931514919,-0.334332416,0.107605485,-0.397818774,-0.904106865,-14878,1728,15098,26,446,-79,1095,39,-489,1
394318180,1186,-212,337,-0.934323302,-0.324871318,0.112710468,-0.400931673,-0.902163807,-11458,216,16564,60,316,-54,1095,61,-478,1
394338180,1242,-50,266,-0.937705396,-0.313924108,0.115882179,-0.407432863,-0.898846181,-10686,3048,15016,-114,198,-90,1077,49,-483,1
394358180,921,354,245,-0.935692228,-0.317530759,0.122147815,-0.412008129,-0.895950921,-15928,9656,14324,-128,205,-140,1067,65,-475,1
394378180,639,498,260,-0.933562964,-0.321561346,0.127171992,-0.405328844,-0.898184301,-20374,12124,14698,367,162,-256,1071,55,-466,1
394398180,931,232,142,-0.931064263,-0.328938218,0.126519908,-0.387898721,-0.905930104,-15620,7846,13052,903,231,-202,1069,69,-462,1
394418180,1277,-152,241,-0.936188649,-0.3162644,0.121552736,-0.371140096,-0.913631327,-10092,1532,14676,1009,-48,-47,1083,71,-475,1
394438180,1309,-146,296,-0.941692684,-0.302181313,0.11551568,-0.356145408,-0.920417378,-9758,1434,15112,944,-70,30,1057,79,-495,1
394458180,1243,-12,295,-0.947641216,-0.285032041,0.110472983,-0.34630594,-0.92469956,-11012,3506,14532,672,-168,-34,1051,87,-499,1
394478180,1301,115,357,-0.955510177,-0.259165265,0.106498303,-0.337751433,-0.928200193,-10346,5498,14684,573,-515,-151,1043,101,-529,1
394498180,1697,14,386,-0.961370956,-0.237252835,0.105711084,-0.328888189,-0.931490112,-4358,3680,13952,541,-957,-36,1035,109,-542,1
394518180,2297,-274,458,-0.970210209,-0.201361924,0.100567131,-0.324375141,-0.933658756,4948,-1096,13936,409,-1518,188,1013,111,-553,1
394538180,2464,-363,259,-0.979506278,-0.153635601,0.095737996,-0.330169128,-0.932064522,7306,-2676,9198,-39,-1948,265,1013,97,-573,1
394558180,2470,-358,-1,-0.987132192,-0.098023528,0.092883508,-0.342191104,-0.928105965,7146,-2688,3222,-332,-2231,214,1011,99,-612,1
394578180,2304,-440,-443,-0.991292039,-0.041986767,0.092224621,-0.351395102,-0.924626151,4350,-4022,-5686,-233,-2240,85,997,81,-655,1
394598180,2321,-526,-757,-0.992295355,0.008657059,0.092564127,-0.355697412,-0.922972651,4596,-5388,-12378,-25,-2037,21,975,73,-691,1
394618180,2346,-832,-820,-0.990691654,0.049946761,0.098709239,-0.355330996,-0.922621915,5058,-10082,-14746,175,-1677,-220,965,69,-733,1
394638180,2556,-1076,-926,-0.987177644,0.090252332,0.105563807,-0.369696416,-0.916021854,8528,-13762,-17760,-456,-1569,-291,949,63,-761,1
394658180,1965,-407,-877,-0.983427597,0.124410121,0.107512531,-0.402319262,-0.902139531,-802,-2996,-18098,-1261,-1239,-200,941,47,-764,1
394678180,1714,35,-476,-0.979016665,0.158302508,0.103432816,-0.437905891,-0.885759169,-4682,3944,-12786,-1434,-1212,-27,943,49,-765,1
394698180,1142,41,-412,-0.978988785,0.165325806,0.096174805,-0.469300862,-0.871357813,-13716,3916,-12482,-1311,-734,-66,927,13,-778,1
394718180,793,14,-376,-0.976560859,0.178287162,0.094940663,-0.496172603,-0.855732895,-19336,3330,-11844,-1083,-391,-135,923,-5,-770,1
394738180,790,-19,-479,-0.97541872,0.185357284,0.093568022,-0.52191647,-0.840542534,-19332,2756,-13736,-1042,-167,-133,915,-9,-777,1
394758180,580,-68,-466,-0.975270431,0.186539194,0.092234766,-0.546945769,-0.824548021,-22690,1930,-13562,-1032,80,-139,925,-23,-757,1
394778180,519,-27,-494,-0.976742178,0.178973584,0.091766698,-0.574224204,-0.806021215,-23712,2572,-13764,-1160,450,-195,935,-37,-767,1
394798180,485,22,-496,-0.979422871,0.165251246,0.088416866,-0.601386901,-0.786445865,-24346,3244,-13344,-1202,705,-64,919,-37,-732,1
394818180,513,2,-530,-0.9830366,0.1458453,0.081260583,-0.625633199,-0.768134549,-24018,2690,-13252,-1101,923,130,917,-51,-722,1
394838180,648,58,-731,-0.986916002,0.121792814,0.072282791,-0.648846727,-0.749621907,-21986,3294,-15678,-1081,1099,234,947,-61,-694,1
394858180,716,242,-864,-0.993212292,0.070888488,0.054134317,-0.66982034,-0.733490752,-21018,5878,-16916,-1017,1202,353,943,-75,-652,1
394878180,721,371,-781,-0.996029168,0.024752628,0.036222824,-0.684295466,-0.720997335,-21080,7464,-13986,-660,1081,289,941,-85,-666,1
394898180,751,138,-426,-0.995927081,0.006031394,0.03523611,-0.696032383,-0.708884941,-20638,3362,-6998,-513,814,62,941,-83,-632,1
394918180,809,-101,-118,-0.995684609,-0.007994749,0.040920624,-0.711072054,-0.693651214,-19688,-278,-1626,-709,616,-196,955,-83,-631,1
394938180,1091,-37,82,-0.995278191,-0.022758665,0.044290062,-0.724355411,-0.679666409,-15162,870,2158,-619,764,-106,949,-97,-607,1
394958180,1637,349,331,-0.995504469,-0.027300216,0.036471625,-0.732849609,-0.671106711,-6416,7014,6406,-315,488,68,955,-105,-582,1
394978180,1770,486,867,-0.995442163,-0.024367847,0.039155273,-0.745245203,-0.657117868,-4304,9058,14672,-597,-76,-55,957,-105,-591,1
394998180,1475,507,1088,-0.995226756,-0.023789914,0.044674017,-0.759663388,-0.640126379,-9018,9574,18190,-746,28,-169,951,-95,-586,1
395018180,1369,430,1219,-0.995146377,-0.02312308,0.04743556,-0.769417377,-0.628304208,-10706,8432,20260,-463,14,-68,955,-97,-576,1
395038180,1226,380,1026,-0.996044636,-0.000575216,0.034650578,-0.778855979,-0.617544042,-13008,7468,17050,-382,-112,248,951,-93,-597,1
395058180,1091,594,703,-0.996515779,0.01195216,0.013217557,-0.781161496,-0.615433041,-15194,10360,11332,52,99,376,937,-91,-589,1
395078180,589,740,1392,-0.994909033,0.06045422,-0.007288409,-0.788713612,-0.605687829,-23224,12032,21090,-341,-966,317,937,-95,-609,1
395098180,1586,642,-1178,-0.996262485,0.028876927,0.006229111,-0.776742773,-0.620994816,-7282,10474,-19786,973,1296,-485,935,-73,-569,1
395118180,2300,-300,-476,-0.995714009,0.010520339,0.042024986,-0.742647212,-0.659929844,4134,-3422,-7928,2289,707,-1389,935,-85,-569,1
395138180,1658,-553,623,-0.994545372,0.021875035,0.061220654,-0.710963549,-0.692292424,-6086,-6844,9272,2014,-545,-725,931,-57,-600,1
395158180,1811,-254,-758,-0.993485371,0.002778154,0.079649647,-0.701523541,-0.700142328,-3584,-1458,-12218,663,752,-713,925,-29,-575,1
395178180,1370,-178,-712,-0.992243344,-0.014576966,0.095379027,-0.695989843,-0.704387523,-10594,242,-11360,381,149,-574,933,-3,-579,1
395198180,2211,-615,-162,-0.991492983,-0.012339743,0.099659054,-0.69508059,-0.703823218,2872,-6580,-2178,180,-64,-144,949,11,-574,1
395218180,2208,-464,151,-0.991048206,-0.011046834,0.104112913,-0.707060853,-0.691173809,2846,-4020,2780,-547,34,-138,933,47,-586,1
395238180,1573,154,-332,-0.99068547,-0.024114568,0.105322165,-0.722237654,-0.675291751,-7284,6104,-4698,-759,421,-244,943,41,-562,1
395258180,1309,-132,-743,-0.989293272,-0.047690207,0.112095287,-0.725190651,-0.671710957,-11488,1566,-10774,-104,445,-254,933,37,-586,1
395278180,1456,-449,-768,-0.98661699,-0.074073259,0.120435555,-0.726192934,-0.669216329,-9084,-3398,-10232,-2,647,-113,945,41,-554,1
395298180,1402,-412,-766,-0.982997458,-0.104356661,0.1266839,-0.730269238,-0.663630763,-9840,-2584,-9192,-178,848,-32,949,33,-541,1
395318180,1311,-292,-650,-0.978388801,-0.135975333,0.13087779,-0.738615498,-0.653365137,-11146,-464,-6236,-427,1018,15,923,43,-552,1
395338180,1209,-129,-489,-0.972980304,-0.168567883,0.131988899,-0.74932963,-0.64074216,-12582,2282,-2494,-546,1206,54,953,59,-500,1
395358180,1187,-39,-273,-0.968033724,-0.194970444,0.130373228,-0.759651283,-0.628594542,-12736,3734,2004,-485,1172,95,937,29,-492,1
395378180,1235,-54,-30,-0.964698404,-0.211332448,0.129004472,-0.76883284,-0.617631234,-11808,3434,6634,-384,1006,99,951,39,-477,1
395398184,1448,-127,181,-0.963238923,-0.218099432,0.128668691,-0.778524911,-0.605563078,-8322,2206,10372,-403,791,132,937,11,-487,1
395418184,1447,-43,270,-0.963033617,-0.21899038,0.128712028,-0.791238278,-0.588951508,-8310,3604,11880,-628,643,103,947,19,-442,1
395438184,1275,-101,302,-0.962996302,-0.217979107,0.13098333,-0.80354253,-0.571711497,-11056,2704,12398,-638,620,72,937,11,-447,1
395458184,1256,-100,314,-0.963289306,-0.214574967,0.134136308,-0.815650919,-0.553542012,-11372,2824,12486,-669,536,40,931,-1,-436,1
395478184,1214,27,258,-0.964363383,-0.209399777,0.134305586,-0.825735988,-0.538301216,-12074,4960,11386,-533,399,1,933,45,-423,1
395498184,1128,123,310,-0.966795186,-0.200189414,0.131646837,-0.833850205,-0.526580382,-13508,6486,11946,-365,250,-21,947,19,-420,1
395518184,1144,209,258,-0.969037402,-0.191804254,0.127212868,-0.838313151,-0.520408638,-13338,7784,10794,-110,188,-91,937,27,-429,1
395538184,1236,201,259,-0.971962882,-0.180818308,0.121651123,-0.840005575,-0.519175846,-11968,7456,10422,122,13,-66,921,23,-397,1
395558184,1190,229,194,-0.974308679,-0.172677893,0.114630746,-0.839212207,-0.522003638,-12796,7698,9070,308,51,-72,927,45,-385,1
395578184,1005,315,130,-0.973959364,-0.173841257,0.114918948,-0.834883565,-0.528544592,-15840,8794,7778,478,29,-38,921,37,-409,1
395598184,1055,252,119,-0.973348802,-0.1787873,0.112957116,-0.825540612,-0.543511132,-15018,7726,7760,881,133,-22,917,65,-413,1
395618184,957,77,126,-0.972353868,-0.185436347,0.110455176,-0.812760178,-0.562793018,-16558,4844,8094,1107,182,-45,909,67,-412,1
395638184,832,-108,-3,-0.970682342,-0.194486275,0.108973792,-0.797001507,-0.584963644,-18504,1834,6330,1260,267,-126,901,63,-422,1
395658184,963,-309,-66,-0.969359871,-0.202207167,0.106500008,-0.778177444,-0.610097978,-16368,-1460,5580,1433,195,-131,889,71,-408,1
395678184,1277,-473,46,-0.969494125,-0.199798817,0.110201414,-0.764194941,-0.626875792,-11322,-4206,7506,1089,94,-16,889,79,-409,1
395698184,1550,-309,66,-0.971352719,-0.193723828,0.105103312,-0.757079691,-0.636350274,-6996,-1600,7628,727,-16,241,873,69,-425,1
395718184,1954,-252,140,-0.974379506,-0.182300303,0.096467404,-0.756247176,-0.638454312,-670,-876,8216,321,-474,358,883,73,-408,1
395738184,2303,-316,363,-0.979755379,-0.155449964,0.089954672,-0.761707149,-0.632965662,4736,-2114,10906,-99,-1074,345,855,79,-440,1
395758184,2496,-315,439,-0.985965224,-0.112559589,0.087289861,-0.772933202,-0.619601849,7606,-2184,10730,-522,-1690,237,857,65,-429,1
395778184,2468,-171,195,-0.991112297,-0.057545023,0.085593167,-0.785094837,-0.604632305,6984,68,5028,-614,-2174,168,859,71,-464,1
395798184,2292,-54,-253,-0.993236471,0.000445744,0.081965601,-0.792566556,-0.595246056,4094,1818,-4036,-320,-2311,194,871,49,-485,1
395818184,2006,-181,-514,-0.992133915,0.05326169,0.080949213,-0.793528967,-0.59428332,-436,-246,-9952,105,-2138,72,863,43,-503,1
395838184,2161,-355,-683,-0.988878636,0.095091676,0.083597624,-0.785786955,-0.603942636,2152,-2944,-14030,673,-1736,-43,865,49,-565,1
395858184,2341,-735,-699,-0.984502438,0.130434211,0.088813576,-0.780445816,-0.610049019,5182,-8854,-15450,512,-1466,-144,859,55,-544,1
395878184,1763,-637,-733,-0.980036259,0.160417793,0.090226824,-0.786528289,-0.602016212,-3916,-7240,-16980,-235,-1185,-86,861,43,-565,1
395898184,1597,-176,-448,-0.977713171,0.177159034,0.087144201,-0.802776186,-0.581499057,-6418,10,-13388,-966,-1112,-10,859,45,-584,1
395918184,1113,-79,-330,-0.975802781,0.189828333,0.082812429,-0.822879272,-0.553687127,-14092,1454,-11936,-1286,-948,-78,855,9,-572,1
395938184,863,58,-408,-0.972141083,0.207878407,0.080253035,-0.842345549,-0.52328969,-18072,3554,-13324,-1286,-605,-156,859,-5,-579,1
395958184,760,-4,-377,-0.969908573,0.219548725,0.076322854,-0.860307656,-0.49394796,-19636,2436,-13220,-1235,-358,-110,867,-11,-600,1
395978184,562,-52,-455,-0.969385074,0.223504242,0.071477586,-0.876425674,-0.465714801,-22784,1506,-14600,-1170,-49,-67,885,19,-604,1
395998184,463,54,-618,-0.971284661,0.216820484,0.06575046,-0.891161714,-0.43797596,-24430,3016,-16988,-1134,386,-20,875,11,-579,1
396018184,471,45,-610,-0.974384829,0.203729449,0.06072925,-0.90409638,-0.411558213,-24404,2708,-16430,-1049,637,-18,869,11,-568,1
396038184,652,-53,-645,-0.978492005,0.184384476,0.054919169,-0.915085031,-0.387526887,-21644,950,-16356,-936,881,57,895,-25,-546,1
396058184,653,-24,-752,-0.983221605,0.159773676,0.045440694,-0.925147422,-0.36442876,-21784,1102,-17262,-911,1082,236,881,-29,-510,1
396078184,742,202,-848,-0.990894314,0.107935181,0.032239898,-0.932140257,-0.349069448,-20500,4474,-17884,-604,1192,226,873,-21,-488,1
396098184,729,226,-610,-0.993171083,0.080355978,0.030637939,-0.9341799,-0.342484865,-20900,4620,-12378,-109,1160,70,871,-31,-483,1
396118184,704,-60,-192,-0.994159754,0.064080929,0.034228778,-0.937911753,-0.331794547,-21320,160,-5170,-283,692,-145,873,-43,-480,1
396138184,885,-192,138,-0.994576016,0.053362649,0.038657009,-0.943260888,-0.315850575,-18436,-1806,460,-508,476,-187,871,-9,-459,1
396158184,1132,44,378,-0.994604576,0.05493289,0.037848696,-0.947401341,-0.303793656,-14490,2014,4506,-341,292,-51,883,-29,-443,1
396178184,1509,442,722,-0.994916707,0.046382427,0.038379763,-0.951235099,-0.291298168,-8462,8326,10034,-362,384,-16,873,-27,-453,1
396198184,1865,378,760,-0.994960645,0.043760534,0.040552519,-0.954893006,-0.279013891,-2766,7376,10724,-354,140,-82,867,-19,-442,1
396218184,1958,280,824,-0.994984217,0.042004999,0.042339233,-0.958225241,-0.267356286,-1276,5868,11804,-327,105,-63,875,-17,-427,1
396238184,1254,310,1069,-0.994236935,0.065057961,0.031428454,-0.963719491,-0.2487546,-12544,6194,15552,-609,-174,185,871,-13,-414,1
396258184,1374,467,992,-0.994063973,0.072051227,0.017913435,-0.969192989,-0.227979399,-10600,8056,13518,-741,-245,522,877,-27,-433,1
396278184,-235,663,846,-0.993931528,0.076304277,0.001534956,-0.977226321,-0.192164043,29194,10656,11046,-1371,-143,589,849,-13,-441,1
396298184,1666,743,-575,-0.995826578,0.041396303,0.012503112,-0.975553256,-0.200131364,-5988,12296,-10550,516,1431,-397,849,-25,-400,1
396318184,1599,-117,-1218,-0.995713092,0.003161844,0.041592661,-0.966130646,-0.237487989,-7078,-508,-19562,1752,1527,-1123,847,-19,-421,1
396338184,2382,-53,-485,-0.995026616,-0.008040132,0.055753596,-0.951388584,-0.288314093,5482,978,-7478,2306,361,-557,857,17,-384,1
396358184,2282,-669,-436,-0.993803518,-0.027069883,0.068840891,-0.946160568,-0.302180056,3938,-8452,-6086,751,751,-512,853,19,-398,1
396378184,1530,-442,-274,-0.991049904,-0.052399652,0.089189889,-0.943981059,-0.303515339,-8026,-4334,-2778,205,901,-572,855,37,-364,1
396398184,1921,-89,-56,-0.9901058,-0.059525246,0.094791334,-0.948752765,-0.286670186,-1714,1674,1056,-558,373,-153,861,37,-369,1
396418184,1621,-346,-140,-0.989499349,-0.061043147,0.100120558,-0.953463407,-0.268955367,-6506,-2366,-260,-590,122,-7,859,53,-345,1
396438184,1868,-439,-367,-0.988578681,-0.067043306,0.105340961,-0.957143012,-0.253784398,-2510,-3580,-3676,-484,326,-136,841,43,-352,1
396458184,1815,-71,-393,-0.987313772,-0.07574204,0.110621727,-0.961173771,-0.235767413,-3320,2480,-3802,-601,455,-126,837,59,-351,1
396478184,1627,115,-571,-0.986195605,-0.087255485,0.111545258,-0.964621894,-0.220881665,-6290,5486,-6274,-456,558,46,857,71,-325,1
396498184,1508,213,-588,-0.984776214,-0.111287609,0.102820272,-0.967835113,-0.2116725,-8146,6992,-6014,-260,729,149,863,65,-316,1
396518184,1419,95,-510,-0.981974952,-0.138265349,0.09542307,-0.968728811,-0.210893691,-9494,4794,-3824,118,882,145,851,55,-286,1
396538184,1328,-145,-487,-0.977266006,-0.169134274,0.092842132,-0.967631595,-0.21685938,-10814,710,-2418,405,1050,108,849,63,-295,1
396558184,1242,-281,-457,-0.970511626,-0.202829555,0.093880238,-0.965625182,-0.224616328,-11982,-1536,-788,490,1217,66,845,53,-296,1
396578184,1204,-290,-366,-0.96340435,-0.233360544,0.095804674,-0.964648655,-0.228237385,-12336,-1630,1746,320,1209,75,839,43,-249,1
396598184,1180,-273,-289,-0.956896167,-0.257703222,0.097772174,-0.965087662,-0.225570152,-12488,-1288,3850,77,1080,122,827,51,-240,1
396618184,1170,-257,-268,-0.950801471,-0.278039211,0.10024971,-0.966507263,-0.218170479,-12440,-938,4888,-113,982,142,821,53,-265,1
396638184,1221,-197,-245,-0.945836263,-0.293693293,0.102209555,-0.969147632,-0.205451103,-11438,138,5806,-332,861,167,811,35,-231,1
396658184,1200,-87,-207,-0.941056179,-0.308473725,0.102586083,-0.972324667,-0.190055836,-11594,1996,6936,-444,890,170,821,43,-219,1
396678184,1160,-93,-149,-0.934915245,-0.325876988,0.103936438,-0.975059811,-0.174766781,-12014,1936,8496,-435,1087,146,799,49,-212,1
396698184,1229,-77,-180,-0.925955281,-0.349908985,0.105237037,-0.977822587,-0.158084728,-10610,2252,8794,-491,1396,161,795,63,-167,1
396718184,1186,43,-260,-0.914153857,-0.379653113,0.104949711,-0.980636794,-0.140575949,-10912,4258,8450,-542,1611,142,793,37,-166,1
396738184,1226,136,-233,-0.90136517,-0.409574781,0.1018516,-0.982808748,-0.127242731,-9818,5712,9918,-361,1691,122,785,49,-156,1
396758184,1305,204,-218,-0.887827083,-0.438970599,0.096919034,-0.984647909,-0.116512517,-8080,6676,11160,-244,1732,116,761,51,-128,1
396778184,1370,151,-58,-0.877891313,-0.459203923,0.093102207,-0.985967014,-0.108555699,-6646,5652,14494,-118,1480,86,737,59,-86,1
396798184,1407,-80,36,-0.871312261,-0.471100599,0.094867172,-0.986506134,-0.102037914,-5806,1850,16452,-68,1202,38,737,61,-106,1
396818184,1477,-190,-51,-0.865567256,-0.480791317,0.098241668,-0.986729242,-0.096592911,-4520,136,15336,-24,1049,34,707,69,-63,1
396838184,1497,-147,-296,-0.858915368,-0.492230106,0.099678908,-0.987074232,-0.091725189,-4040,908,11670,-3,961,58,705,77,-54,1
396858184,1537,-3,-369,-0.854717575,-0.499904551,0.09727914,-0.987713173,-0.08747597,-3266,3224,10720,36,741,87,699,81,-27,1
396878184,1775,69,-342,-0.850838613,-0.506768145,0.095051177,-0.988504397,-0.080615902,516,4212,11134,-29,364,252,687,87,-25,1
396898184,1822,261,-222,-0.8540153,-0.50204009,0.092362549,-0.989645792,-0.069964038,1166,7200,12898,-156,-177,346,691,83,-45,1
396918184,1937,462,313,-0.869003536,-0.476575853,0.088007545,-0.991248291,-0.050952025,2506,10270,20638,-418,-1119,567,695,87,-21,1
396938184,1764,612,751,-0.898166358,-0.420821138,0.080681691,-0.992849,-0.027112819,-1244,12436,25854,-563,-2468,736,709,57,-66,1
396958184,1509,620,198,-0.924005874,-0.367264781,0.04744891,-0.994939126,-0.031557042,-5964,11886,15630,691,-1869,714,737,67,-74,1
396978184,1892,98,-127,-0.941367587,-0.322965283,0.023130555,-0.994850675,-0.050980033,-606,2324,8588,1250,-1945,679,745,51,-61,1
396998184,2168,-341,-737,-0.957261652,-0.273824634,0.009352493,-0.993082941,-0.08013195,3290,-5152,-2782,1462,-2104,204,773,39,-132,1
397018184,1978,-278,-963,-0.968532683,-0.231103728,0.013526115,-0.991427153,-0.097186759,-110,-4006,-7812,793,-1788,-311,807,47,-134,1
397038184,1902,-386,-1070,-0.975943848,-0.196781315,0.026656983,-0.989909366,-0.1089193,-1562,-5304,-10660,515,-1421,-593,815,35,-176,1
397058184,1746,-622,-1101,-0.982214022,-0.159005061,0.045764762,-0.988584146,-0.114163304,-4266,-8454,-12390,238,-1548,-772,847,41,-188,1
397078184,1522,-676,-1061,-0.987796709,-0.113166131,0.062388503,-0.988029763,-0.111173898,-8036,-8772,-13248,-48,-1857,-621,861,57,-205,1
397098184,1497,-516,-928,-0.992199672,-0.057127761,0.071558299,-0.989370415,-0.092884976,-8590,-5914,-12950,-612,-2224,-273,891,51,-240,1
397118184,1326,-264,-807,-0.993783548,-0.017481089,0.077476428,-0.991268612,-0.070567042,-11378,-1788,-12814,-813,-2149,-54,917,53,-269,1
397138184,1178,-93,-623,-0.993851848,0.015895933,0.077663082,-0.992547328,-0.049461158,-13734,1058,-10938,-741,-1855,17,945,49,-291,1
397158184,1013,-208,-592,-0.992802259,0.041305289,0.082640031,-0.993153758,-0.02464617,-16330,-724,-11330,-894,-1582,-82,937,67,-327,1
397178184,934,-300,-641,-0.991236392,0.05906125,0.091976385,-0.992815007,0.007170139,-17532,-1968,-12758,-1186,-1320,-204,945,73,-359,1
397198184,841,-325,-627,-0.988289841,0.088890245,0.096230392,-0.991195865,0.042877203,-18962,-2050,-12918,-1255,-1054,-245,969,77,-377,1
397218184,876,-218,-619,-0.985656932,0.113098346,0.099055425,-0.989066318,0.076243602,-18294,-248,-13602,-1179,-848,-218,947,65,-396,1
397238184,849,-89,-599,-0.983171508,0.132027492,0.101008112,-0.985965066,0.108507536,-18646,1878,-13904,-1136,-633,-208,961,59,-382,1
397258184,826,-13,-546,-0.981649864,0.142538233,0.101648628,-0.981779147,0.141623361,-18964,3116,-13398,-1177,-281,-179,963,81,-424,1
397278184,824,85,-498,-0.981019808,0.148877231,0.098600041,-0.976683011,0.175598873,-18974,4584,-12840,-1235,-104,-47,963,95,-410,1
397298184,846,218,-430,-0.980321407,0.157499086,0.092391601,-0.970501402,0.210520191,-18600,6510,-12034,-1300,-199,62,983,103,-392,1
397318188,851,350,-259,-0.979244653,0.168072067,0.085349615,-0.963232344,0.244671492,-18484,8394,-9644,-1283,-291,86,957,105,-394,1
397338188,931,393,7,-0.977960704,0.176648585,0.082915834,-0.957230482,0.268209811,-17158,9000,-5674,-825,-253,-37,965,85,-431,1
397358188,1071,228,155,-0.978165682,0.178740494,0.075527399,-0.95420986,0.28094577,-14892,6394,-3408,-355,-67,-104,981,85,-409,1
397378188,1286,213,147,-0.979202496,0.175603522,0.069001424,-0.952886485,0.287115306,-11486,5894,-3462,-91,90,-35,967,83,-413,1
397398188,1392,327,249,-0.980117377,0.173452361,0.060800421,-0.95288787,0.288967168,-9830,7504,-1696,94,116,1,973,87,-411,1
397418188,1503,303,381,-0.979715854,0.177682981,0.054642193,-0.952952534,0.289932176,-8056,6878,342,141,-71,-26,969,89,-411,1
397438188,1601,139,493,-0.977299994,0.192033242,0.050469261,-0.952448623,0.292425122,-6422,4008,1696,66,-446,17,971,85,-427,1
397458188,1478,145,679,-0.974095855,0.209336098,0.044863334,-0.95122442,0.297400799,-8312,3920,4214,-42,-427,55,979,75,-430,1
397478188,1427,129,668,-0.970957136,0.224695524,0.038398216,-0.950811356,0.29952167,-9028,3440,3526,62,-362,128,975,53,-438,1
397498188,1701,21,697,-0.968615182,0.235284846,0.035460445,-0.95109353,0.299042417,-4526,1496,3442,156,-427,152,995,75,-460,1
397518188,703,-177,-65,-0.974578191,0.208084537,0.039577955,-0.948856942,0.30566222,-20696,-1538,-7854,-78,1158,-194,975,73,-459,1
397538188,2348,22,-262,-0.979329459,0.183098553,0.043240438,-0.94892171,0.304929703,5470,1766,-10188,223,1049,-109,987,63,-430,1
397558188,1595,-460,404,-0.98016287,0.176596483,0.051319878,-0.938196678,0.33578073,-6630,-5896,748,-1130,421,-265,977,65,-417,1
397578188,1289,463,-307,-0.988145705,0.127979754,0.039461702,-0.926401138,0.368982991,-11722,9058,-9408,-1277,1684,-157,973,91,-418,1
397598188,1007,809,-315,-0.992995529,0.084571978,0.023821783,-0.920323068,0.38502736,-16402,14338,-8088,-521,1463,-169,987,81,-382,1
397618188,1171,164,-327,-0.995169891,0.054905875,0.023282236,-0.920825753,0.38415613,-13852,3540,-7348,200,827,-135,985,97,-365,1
397638188,1417,-302,-368,-0.995909022,0.026848566,0.03477507,-0.92280866,0.378461083,-9966,-3860,-7032,405,819,-222,989,91,-360,1
397658188,1469,-529,-137,-0.995390108,0.004206728,0.048629712,-0.921134794,0.380666977,-9140,-7156,-2412,61,834,-182,975,111,-348,1
397678188,1354,-445,-225,-0.994526597,-0.019997271,0.0601847,-0.916946948,0.389177263,-10946,-5396,-3078,-235,852,-132,967,103,-339,1
397698188,1298,-230,-239,-0.993320778,-0.042277962,0.066780945,-0.912212901,0.399170481,-11802,-1596,-2570,-302,785,-97,969,105,-346,1
397718188,1328,-52,-216,-0.992012843,-0.0641602,0.067785735,-0.907838218,0.408949278,-11268,1416,-1446,-285,821,-23,963,105,-295,1
397738188,1313,-4,-203,-0.990315624,-0.08581692,0.06754348,-0.904797427,0.415726602,-11450,2212,-498,-148,840,-17,967,109,-286,1
397758188,1289,-9,-197,-0.988006875,-0.107783187,0.068525414,-0.902834149,0.419827228,-11758,2120,368,-29,909,-16,961,101,-277,1
397778188,1299,-21,-184,-0.985138208,-0.130664974,0.069459816,-0.901724309,0.422120422,-11504,1956,1336,52,955,-17,951,117,-251,1
397798188,1341,-78,-210,-0.981842451,-0.152767131,0.070104448,-0.902031761,0.421362637,-10722,1052,1646,191,922,-8,951,117,-262,1
397818188,1378,-114,-191,-0.97872884,-0.171220975,0.069765597,-0.902677784,0.419993324,-10026,458,2570,229,791,36,947,115,-219,1
397838188,1242,-127,-209,-0.975227414,-0.189595403,0.070142734,-0.902439322,0.420426067,-12090,254,2880,144,791,28,947,111,-222,1
397858188,1272,-88,-197,-0.971575972,-0.207000235,0.071188845,-0.900500465,0.424455045,-11484,924,3650,-25,776,23,939,105,-222,1
397878188,1527,-51,-179,-0.968335534,-0.221430579,0.071582675,-0.897447571,0.430884406,-7274,1566,4496,-124,770,28,949,97,-196,1
397898188,1354,-136,-153,-0.965081196,-0.234386601,0.073443116,-0.893733665,0.438269585,-9938,202,5354,-162,736,62,935,109,-191,1
397918188,1294,-112,-142,-0.961399598,-0.24782593,0.076003195,-0.889277093,0.446811303,-10772,686,5990,-223,788,34,937,93,-186,1
397938188,1355,-47,-105,-0.958368517,-0.258600503,0.078564019,-0.884296328,0.456278531,-9676,1862,6970,-280,729,-15,937,105,-179,1
397958188,1276,39,-70,-0.955284536,-0.269632557,0.079364162,-0.879520476,0.465405961,-10822,3328,7920,-263,781,-21,929,115,-149,1
397978188,1262,49,-64,-0.951637331,-0.281960316,0.078975801,-0.876486216,0.471142106,-10922,3480,8438,-99,849,-21,919,121,-155,1
397998188,1254,-122,-205,-0.945872309,-0.3000308,0.080336284,-0.875793479,0.472171158,-10896,662,6692,120,971,4,917,117,-136,1
398018188,1261,-180,-275,-0.938985389,-0.320415789,0.082679467,-0.875640552,0.472130641,-10566,-230,6208,162,1029,2,895,115,-123,1
398038188,1268,-151,-327,-0.930812236,-0.342601731,0.085314828,-0.874280658,0.474201059,-10186,348,6094,54,1110,-7,899,115,-133,1
398058188,1279,10,-231,-0.923383974,-0.361858891,0.085299446,-0.87146809,0.479356242,-9722,3044,8346,-79,1118,2,881,127,-76,1
398078188,1375,-7,-116,-0.91589452,-0.379943909,0.086322674,-0.868145995,0.485182872,-7898,2788,10878,-108,1211,-5,875,125,-88,1
398098188,1370,-14,-43,-0.90792015,-0.398043895,0.088813312,-0.864300421,0.49163883,-7682,2752,12698,-155,1302,-38,861,141,-61,1
398118188,1357,-47,-12,-0.900746761,-0.413126487,0.092012023,-0.861320803,0.496269738,-7636,2308,13718,-77,1216,-72,863,125,-59,1
398138188,1418,-77,-31,-0.895790761,-0.423349548,0.094123705,-0.859018,0.499916848,-6492,1878,13740,-7,989,-28,851,125,4,1
398158188,1705,-128,-128,-0.893868506,-0.42720324,0.094288995,-0.856369436,0.504403053,-1856,1052,12272,1,652,79,807,121,14,1
398178188,1842,120,-275,-0.891276944,-0.432524398,0.094473766,-0.85103526,0.513383321,266,5012,9770,-222,297,206,823,125,-3,1
398198188,1876,420,28,-0.898240168,-0.418258436,0.093251191,-0.843556443,0.525878383,578,9770,14158,-346,-574,332,821,133,9,1
398218188,1835,414,447,-0.915831123,-0.379537301,0.088862091,-0.836085342,0.538483612,-666,9534,19610,-309,-1665,434,833,135,-18,1
398238188,1604,474,233,-0.935920961,-0.332594424,0.066940102,-0.836077742,0.54168126,-4844,10110,15050,275,-1508,499,835,119,-53,1
398258188,1850,325,-49,-0.9494796,-0.295402143,0.048636843,-0.839255227,0.538637741,-1532,6792,8916,569,-1603,679,845,111,-76,1
398278188,1983,-77,-309,-0.963662229,-0.248745391,0.032017804,-0.845362268,0.530242225,126,-184,3234,756,-1984,565,877,95,-90,1
398298188,1921,-289,-533,-0.974215707,-0.205164079,0.025604004,-0.854831478,0.51509816,-1210,-3788,-1784,931,-1829,117,913,89,-129,1
398318188,1871,-301,-821,-0.980075765,-0.174855925,0.030221063,-0.864647582,0.498065373,-2192,-3828,-7394,909,-1261,-310,905,87,-169,1
398338188,1816,-491,-1017,-0.984059678,-0.14848784,0.042994223,-0.874071551,0.480263656,-3200,-6450,-11396,883,-1099,-615,917,81,-190,1
398358188,1753,-646,-965,-0.987943746,-0.112904608,0.060280084,-0.879042707,0.469077332,-4342,-8364,-11724,561,-1463,-732,939,91,-188,1
398378188,1519,-766,-970,-0.991497468,-0.063509332,0.075428801,-0.874456838,0.475484341,-8208,-9786,-13418,-210,-1978,-554,955,107,-215,1
398398188,1480,-739,-886,-0.993456732,-0.003039315,0.07945302,-0.86161723,0.49794089,-8908,-9224,-14046,-893,-2368,-94,967,137,-243,1
398418188,1359,-345,-694,-0.993199833,0.038845941,0.078825681,-0.843713246,0.528279237,-10820,-3088,-12818,-1329,-2167,208,973,131,-286,1
398438188,1128,-34,-561,-0.992415238,0.068948559,0.069163432,-0.823960831,0.560066929,-14462,1756,-11704,-1419,-1707,288,991,119,-312,1
398458188,1051,-113,-537,-0.991382731,0.087474313,0.064356264,-0.804215984,0.588795092,-15644,258,-11958,-1312,-1284,153,993,123,-356,1
398478188,861,-265,-577,-0.988590512,0.11389856,0.061032303,-0.782302964,0.617815336,-18652,-2242,-12938,-1307,-954,20,989,117,-363,1
398498188,856,-254,-635,-0.986345816,0.133275434,0.059177664,-0.761118032,0.644045107,-18638,-2128,-14518,-1207,-693,-61,991,139,-366,1
398518188,828,-190,-597,-0.984463906,0.147488829,0.057361611,-0.74061464,0.667792272,-19022,-1162,-14378,-1109,-491,-73,1007,141,-366,1
398538188,806,-78,-520,-0.983093407,0.157234203,0.055928132,-0.720098142,0.690105315,-19328,582,-13466,-1062,-314,-97,1001,141,-394,1
398558188,802,-12,-487,-0.982497979,0.161996013,0.053190629,-0.698908757,0.711874133,-19374,1548,-13094,-1073,-111,-53,1009,155,-402,1
398578188,820,90,-495,-0.981945554,0.167323289,0.046241109,-0.675509699,0.73467673,-19066,2954,-13396,-1190,-134,94,1007,143,-405,1
398598188,780,326,-470,-0.981374387,0.17312203,0.037108358,-0.652304044,0.755965015,-19688,6428,-13188,-1160,-166,184,1003,141,-405,1
398618188,674,376,-261,-0.980689432,0.178550934,0.029306949,-0.632077586,0.773368828,-21360,6974,-10024,-961,-170,156,1001,139,-397,1
398638188,666,211,6,-0.979436275,0.185920214,0.025275718,-0.615525816,0.786796635,-21446,4202,-5992,-718,-261,37,997,131,-410,1
398658188,716,126,40,-0.978814602,0.189457297,0.022415861,-0.598380458,0.800047092,-20624,2750,-5564,-722,-106,-18,1001,151,-401,1
398678188,820,195,-35,-0.979704395,0.185130231,0.020029044,-0.582968846,0.8114632,-18988,3774,-6626,-621,212,-19,999,153,-428,1
398698188,1124,114,34,-0.9808918,0.179365402,0.012916779,-0.570566844,0.820414715,-14132,2358,-5480,-477,82,64,991,145,-421,1
398718188,1257,103,77,-0.98123041,0.177823704,0.002621454,-0.559673985,0.82800683,-12024,1818,-4708,-422,-58,242,1003,149,-417,1
398738188,1175,210,256,-0.979436951,0.187350942,-0.011882108,-0.545489952,0.837380793,-13306,3128,-2018,-587,-348,291,1001,147,-419,1
398758188,1067,223,428,-0.976188624,0.20225936,-0.026085962,-0.529539328,0.847266875,-14962,2878,390,-660,-401,250,1013,133,-428,1
398778188,872,226,493,-0.975431988,0.204973113,-0.033222321,-0.514400261,0.856335517,-18016,2526,1172,-597,-118,170,1013,145,-406,1
398798188,881,172,404,-0.97661918,0.198696725,-0.035826852,-0.504667081,0.862026354,-17910,1576,-46,-306,260,44,1005,139,-414,1
398818188,1063,140,333,-0.978679985,0.187888235,-0.037499588,-0.500230193,0.86455223,-15088,1100,-720,-40,593,-53,997,141,-437,1
398838188,1537,181,166,-0.982161317,0.168322032,-0.03704817,-0.499270353,0.865124328,-7592,1758,-2918,140,751,-91,1003,153,-406,1
398858188,1540,257,197,-0.984325487,0.154500609,-0.03865715,-0.496857498,0.866448177,-7618,2968,-1940,68,546,-77,999,151,-397,1
398878188,1050,461,785,-0.981082221,0.17201609,-0.04850741,-0.486303378,0.871952754,-15432,6074,7334,-346,-210,-7,997,137,-407,1
398898188,1239,934,193,-0.984595431,0.143260753,-0.065108495,-0.476322699,0.876381483,-12482,13346,-1596,-274,1184,-30,977,149,-395,1
398918188,2209,491,-697,-0.990409916,0.105393421,-0.042965116,-0.492156142,0.868929533,2868,6444,-14588,978,1615,-776,1005,147,-368,1
398938188,1800,-536,-301,-0.994297363,0.069532573,-0.015546017,-0.526702877,0.849307192,-3812,-9088,-7068,1865,1528,-944,1013,195,-335,1
398958188,1898,-1026,225,-0.995389074,0.052514255,0.00823069,-0.547163337,0.836327255,-2264,-16148,1890,1202,711,-877,1013,177,-344,1
398978188,1607,-411,-323,-0.99612825,0.022110289,0.027899096,-0.547564421,0.8356489,-6938,-5874,-6100,202,989,-505,1003,203,-320,1
398998188,1981,-34,-126,-0.995914273,0.017403385,0.033444123,-0.533135664,0.844739167,-948,550,-2580,-524,234,-207,1009,211,-299,1
399018188,2399,-245,403,-0.995756406,0.024917409,0.03504623,-0.518294502,0.853903458,5752,-2774,5632,-544,-265,-47,995,221,-290,1
399038188,1580,-124,96,-0.995566258,0.022418346,0.040226719,-0.497067319,0.86624838,-7350,-678,816,-827,172,-188,977,227,-308,1
399058188,1219,139,-582,-0.995976197,0.001802068,0.043973917,-0.483999493,0.873521416,-13116,3802,-9802,-472,347,-302,1009,241,-296,1
399078188,1187,-217,-941,-0.995102948,-0.025371242,0.054914837,-0.486073589,0.871754086,-13632,-1770,-14806,229,397,-298,999,239,-284,1
399098188,1232,-356,-1029,-0.99301916,-0.057820188,0.064204785,-0.487664886,0.870215273,-12874,-3754,-15132,202,635,-151,993,231,-308,1
399118188,1273,-386,-726,-0.990075555,-0.087992171,0.071673979,-0.481408831,0.873106418,-12132,-4016,-9118,-153,786,-23,1005,235,-288,1
399138188,1336,-239,-417,-0.986764206,-0.115024807,0.075829254,-0.466510462,0.880821107,-10998,-1432,-3070,-533,959,44,991,241,-276,1
399158188,1476,20,-101,-0.984683057,-0.131686689,0.074050156,-0.447362788,0.890876979,-8646,2830,2770,-704,849,105,989,253,-238,1
399178188,1338,165,96,-0.983277299,-0.143041998,0.069896108,-0.427152764,0.901102535,-10778,5116,6438,-737,815,95,985,259,-221,1
399198188,1356,104,246,-0.982692726,-0.148683205,0.067237192,-0.410971828,0.908833019,-10450,4004,9122,-538,690,74,987,253,-253,1
399218188,1340,-92,296,-0.982210588,-0.151080657,0.068619915,-0.39891218,0.91410641,-10692,770,10042,-341,595,58,981,259,-211,1
399238188,1247,-170,303,-0.981560569,-0.153489903,0.072622232,-0.386376593,0.919188723,-12162,-406,10250,-360,619,29,981,245,-222,1
399258192,1164,-80,330,-0.981759483,-0.150416845,0.075817704,-0.37200461,0.924860381,-13488,1204,10618,-439,447,-6,957,259,-254,1
399278192,1053,87,413,-0.983391074,-0.140104914,0.075450738,-0.357040167,0.930793807,-15294,4002,11676,-460,241,-33,977,267,-215,1
399298192,1017,250,513,-0.986034123,-0.122843334,0.072307356,-0.341836292,0.936755236,-15948,6636,12762,-470,22,-89,973,277,-199,1
399318192,981,446,448,-0.988279976,-0.107773192,0.064648247,-0.333155736,0.940441221,-16608,9680,11164,-201,7,-146,965,295,-221,1
399338192,1109,581,284,-0.989972036,-0.099376865,0.052353512,-0.342288278,0.937915653,-14634,11498,8096,554,17,-122,965,297,-208,1
399358192,1039,71,241,-0.989574546,-0.10153948,0.055324588,-0.358858846,0.931506366,-15806,2946,7184,869,68,-165,953,283,-237,1
399378192,918,-258,123,-0.988729753,-0.106675453,0.059387117,-0.377071042,0.924001588,-17716,-2184,5468,942,185,-219,969,299,-228,1
399398192,1043,-274,114,-0.988222832,-0.110315684,0.061652921,-0.394794131,0.916395312,-15696,-2368,5440,932,119,-150,975,305,-206,1
399418192,1011,-125,-25,-0.987935463,-0.110619875,0.06448798,-0.409666846,0.909616482,-16204,110,3228,810,-8,-160,949,297,-208,1
399438192,923,-59,-139,-0.987807419,-0.110812429,0.06629384,-0.424904021,0.902443027,-17604,1224,1408,835,-20,-122,943,317,-210,1
399458192,984,-139,114,-0.987686746,-0.111488491,0.067091592,-0.441185066,0.894508002,-16624,-28,5480,892,-5,-86,945,317,-206,1
399478192,1501,-520,189,-0.988599954,-0.100099528,0.072285822,-0.45457715,0.887345588,-8378,-6206,6514,806,-231,58,933,297,-202,1
399498192,2131,-673,506,-0.990807621,-0.080341587,0.066995974,-0.454486573,0.88780373,1622,-8576,10732,174,-789,246,931,305,-205,1
399518192,2528,-722,770,-0.993544843,-0.043834843,0.062166992,-0.437685393,0.89658775,7878,-9516,13770,-592,-1422,276,959,309,-270,1
399538192,2799,-456,501,-0.994851099,0.008567719,0.059102626,-0.411521221,0.909145994,12156,-5360,7762,-1013,-2045,178,935,305,-269,1
399558192,2867,-238,137,-0.992655292,0.070656938,0.058032555,-0.382687353,0.921768857,13306,-1908,-90,-1116,-2435,28,951,319,-315,1
399578192,2471,-119,-279,-0.986905787,0.131329125,0.054529283,-0.361083928,0.930690711,7162,-118,-8738,-795,-2412,79,975,307,-346,1
399598192,2211,-218,-673,-0.979088902,0.182514995,0.050394957,-0.352286026,0.934297673,3266,-1838,-16730,-245,-2067,136,989,305,-375,1
399618192,2073,-315,-590,-0.969918022,0.226912897,0.05042155,-0.348250711,0.935813596,1368,-3388,-16864,-8,-1818,-8,977,319,-409,1
399638192,1977,-592,-631,-0.961123228,0.261535658,0.05329804,-0.340090349,0.93866127,124,-7728,-18658,-150,-1416,-168,981,287,-444,1
399658192,1679,-401,-531,-0.954451177,0.2855726,0.050971695,-0.321641114,0.945292439,-4422,-4748,-17848,-629,-954,-94,983,307,-460,1
399678192,1237,-172,-377,-0.95322803,0.291394433,0.046370181,-0.293674503,0.95463687,-11288,-1324,-16100,-1103,-852,-47,999,297,-451,1
399698192,873,-108,-360,-0.948623933,0.306396661,0.039404188,-0.262629472,0.963966101,-17140,-436,-15786,-1174,-551,-90,989,295,-464,1
399718192,804,-90,-386,-0.946950344,0.312519487,0.031491684,-0.229490837,0.972707015,-18178,-408,-16412,-1261,-192,-92,997,301,-490,1
399738192,710,-99,-466,-0.94682923,0.313758027,0.021780991,-0.19293209,0.980905188,-19678,-872,-17730,-1407,10,-69,1003,307,-490,1
399758192,546,-104,-534,-0.948997511,0.30752488,0.012033844,-0.154377157,0.987897243,-22378,-1270,-18612,-1473,313,-85,995,307,-506,1
399778192,445,10,-556,-0.95438936,0.290348005,0.002938357,-0.116859648,0.993120518,-24170,254,-18400,-1417,762,-74,1001,303,-513,1
399798192,577,31,-531,-0.960129011,0.270467572,-0.004773747,-0.082546849,0.996563992,-22246,340,-17348,-1269,858,-59,997,293,-477,1
399818192,660,13,-562,-0.966013167,0.248251699,-0.011778072,-0.052813618,0.998529984,-21108,-178,-17118,-1079,940,-5,993,303,-464,1
399838192,394,47,-658,-0.97327069,0.216535594,-0.02289011,-0.027170511,0.999366593,-25606,0,-17610,-955,1324,230,995,313,-440,1
399858192,620,328,-797,-0.979973212,0.182234138,-0.03004383,-0.01508604,0.999432944,-22204,4260,-18716,-376,1426,219,983,297,-432,1
399878192,819,235,-590,-0.98496962,0.152437037,-0.030350515,-0.011828456,0.999467684,-19180,2764,-14432,31,1239,21,995,305,-406,1
399898192,759,-29,-282,-0.987730816,0.13344661,-0.02748933,0.007651463,0.999591535,-20230,-1368,-8882,-606,775,-195,989,289,-373,1
399918192,882,-112,2,-0.990201734,0.113660431,-0.024790202,0.038350917,0.998953318,-18348,-2606,-3684,-1065,795,-230,979,287,-383,1
399938192,1356,140,356,-0.991155205,0.103346569,-0.028317699,0.060951898,0.997731267,-10808,1384,2464,-763,602,-13,975,307,-384,1
399958192,1654,505,807,-0.991427835,0.09918843,-0.03272268,0.083077848,0.9959921,-6030,7006,9664,-754,160,119,969,327,-375,1
399978192,1882,763,895,-0.992326204,0.090141498,-0.031641205,0.101350393,0.994328342,-2408,11170,11368,-577,363,-82,981,309,-374,1
399998192,1865,714,1121,-0.993193455,0.080679683,-0.029006453,0.104980238,0.99403101,-2706,10474,15290,24,399,-90,975,309,-335,1
400018192,1674,505,1296,-0.993219165,0.079235746,-0.031688389,0.102657793,0.994192256,-5764,7042,18138,249,78,144,971,313,-369,1
400038192,1346,531,832,-0.991950493,0.088311544,-0.046016117,0.097330783,0.994168794,-11014,7262,10834,336,171,283,951,307,-352,1
400058192,-314,584,1327,-0.985565141,0.135438256,-0.065829217,0.114759475,0.991182089,28074,7578,17686,-649,-843,271,959,295,-361,1
400078192,1633,420,-1307,-0.991857154,0.089996098,-0.043763657,0.08382309,0.995504392,-6404,5284,-23836,1521,1951,-723,977,311,-353,1
400098192,2108,-543,-403,-0.993027896,0.08820462,-0.004244704,0.041856676,0.999111636,1160,-8830,-9316,2005,132,-1424,955,329,-353,1
400118192,2340,45,325,-0.992427662,0.094535708,0.008937374,0.014857804,0.999849169,4910,1010,2110,1301,-242,-408,947,347,-309,1
400138192,1369,-125,-666,-0.995323665,0.052913152,0.027621022,0.00905136,0.999576293,-10686,-1152,-12864,435,1111,-643,935,355,-307,1
400158192,1436,-307,-868,-0.995777171,0.032223491,0.040133256,0.008427747,0.999156706,-9640,-3740,-15468,179,209,-304,929,343,-304,1
400178192,1565,-891,-609,-0.995394113,0.033065675,0.039303245,0.020178827,0.999020634,-7594,-12968,-10816,-315,19,46,943,347,-299,1
400198192,2050,-746,-132,-0.995308561,0.032299485,0.042648669,0.052317189,0.997712253,176,-10540,-3164,-1141,102,-145,931,363,-281,1
400218192,1898,101,-108,-0.995239973,0.025111226,0.047255932,0.088509113,0.994937293,-2258,3162,-2540,-1307,378,-195,927,369,-268,1
400238192,1807,87,-131,-0.995192267,0.017591884,0.050414403,0.114534833,0.992112985,-3708,3042,-2666,-900,379,-118,907,373,-312,1
400258192,1515,312,-341,-0.995674493,-0.004654856,0.044076262,0.134450879,0.989906307,-8380,6670,-5510,-661,700,-11,941,365,-291,1
400278192,1495,246,-465,-0.99547172,-0.029318646,0.037735436,0.142654039,0.989016926,-8704,5356,-6740,-185,711,61,925,385,-278,1
400298192,1318,36,-473,-0.994389111,-0.056492442,0.036118539,0.141483998,0.989247268,-11510,1818,-5998,198,772,18,911,383,-302,1
400318192,1131,-170,-419,-0.991953645,-0.086185606,0.038985585,0.138228308,0.989598921,-14444,-1544,-4130,284,909,29,907,375,-265,1
400338192,971,-296,-246,-0.989470739,-0.109411256,0.038989529,0.136564035,0.989829523,-16896,-3460,-344,229,970,22,915,369,-275,1
400358192,863,-359,-89,-0.986537252,-0.132123176,0.040023666,0.13699794,0.989727629,-18526,-4434,2914,138,952,-10,919,377,-256,1
400378192,868,-330,-25,-0.983535511,-0.151985148,0.041615563,0.140727704,0.989136513,-18346,-3918,4586,0,841,-12,907,363,-211,1
400398192,1014,-298,74,-0.981230428,-0.16545083,0.043668925,0.147330342,0.988082564,-15932,-3338,6606,-120,585,-10,897,371,-220,1
400418192,1110,-114,-56,-0.98044838,-0.16866482,0.048012618,0.152752206,0.987053715,-14352,-306,4746,-70,307,-43,903,393,-204,1
400438192,1376,8,31,-0.980793504,-0.167253027,0.048092355,0.155476114,0.986624127,-10086,1756,6156,54,193,-22,897,367,-185,1
400458192,1646,74,292,-0.982211417,-0.158558266,0.049287905,0.163097512,0.985329621,-5792,2890,10184,-154,76,-81,903,377,-199,1
400478192,1522,219,806,-0.982283492,-0.155276135,0.056592459,0.183482263,0.981330102,-7842,5356,17990,-717,-64,-128,881,387,-222,1
400498192,999,972,1015,-0.98187633,-0.154201435,0.065342693,0.202184452,0.977088269,-16196,17690,21296,-662,27,-198,877,401,-195,1
400518192,1044,803,809,-0.985278277,-0.135766836,0.055515759,0.196020069,0.978955742,-15460,15210,17980,425,-22,-295,861,399,-211,1
400538192,810,282,531,-0.984913826,-0.136763692,0.059264104,0.164049476,0.984619228,-19324,6452,12988,1448,-15,-307,855,405,-181,1
400558192,1158,-364,144,-0.985649887,-0.129291032,0.065528079,0.123520907,0.990146171,-13764,-3910,6786,1832,-97,-175,875,389,-187,1
400578192,952,-387,-139,-0.985861775,-0.127895312,0.063533741,0.093864102,0.993536292,-17086,-4112,1976,1375,-115,-51,865,403,-167,1
400598192,1098,-394,-212,-0.985834099,-0.126330987,0.067347121,0.071974514,0.995116955,-14766,-4362,694,1062,-174,84,875,385,-155,1
400618192,1286,-196,-62,-0.98720629,-0.116512183,0.066050703,0.052275484,0.996437158,-11776,-1056,2896,984,-358,82,857,369,-188,1
400638192,1533,-219,191,-0.989507053,-0.097615251,0.062660272,0.038034137,0.997303357,-7884,-1530,6472,782,-527,194,867,369,-189,1
400658192,2078,-590,471,-0.991912849,-0.076003112,0.054200845,0.033063285,0.997976981,736,-7664,10034,396,-877,352,855,367,-184,1
400678192,2712,-881,420,-0.994859792,-0.032326082,0.047230113,0.044738699,0.997875271,10776,-12548,7796,-293,-1740,339,865,359,-179,1
400698192,2884,-394,301,-0.9952683,0.028503597,0.045870534,0.072389374,0.996309368,13494,-4802,3914,-962,-2405,91,883,339,-238,1
400718192,2508,-98,-182,-0.991812961,0.089663876,0.044983862,0.096421091,0.99430464,7590,-94,-5818,-818,-2425,11,913,345,-269,1
400738192,2269,13,-597,-0.985660801,0.143572522,0.045367368,0.105514158,0.993360452,3982,1692,-14236,-204,-2172,-27,917,347,-302,1
400758192,2247,-234,-801,-0.978377461,0.185168743,0.053677404,0.10083355,0.993432872,3874,-1986,-18870,402,-1706,-273,929,343,-326,1
400778192,2079,-654,-865,-0.972777991,0.212210443,0.057580841,0.102196665,0.993074443,1380,-8578,-20790,137,-1104,-138,937,329,-323,1
400798192,1799,-349,-624,-0.96766863,0.23591679,0.052880775,0.125139704,0.990698433,-2936,-3854,-17710,-794,-918,9,945,337,-363,1
400818192,1136,-212,-607,-0.969083622,0.231766513,0.051552657,0.156410854,0.986306243,-13430,-1826,-17930,-1167,-546,-89,961,327,-365,1
400838192,1051,-66,-546,-0.972113742,0.21999236,0.046062067,0.189433061,0.980757069,-14908,434,-16550,-1250,-202,-55,973,333,-371,1
400858192,891,-121,-608,-0.971694345,0.22125422,0.039598945,0.221728969,0.974214487,-17614,-638,-16958,-1203,43,-9,985,323,-386,1
400878192,631,-47,-654,-0.973854776,0.212747825,0.032168534,0.253689706,0.966634363,-21826,302,-17428,-1205,422,39,977,325,-361,1
400898192,505,95,-607,-0.976674546,0.20058959,0.022176347,0.28636856,0.95771437,-23938,2244,-16276,-1266,562,146,967,343,-348,1
400918192,599,95,-545,-0.979032218,0.189499652,0.011469768,0.317053106,0.948154463,-22510,1894,-14920,-1200,502,205,981,339,-380,1
400938192,622,-29,-391,-0.980563372,0.181440853,-0.001519319,0.343659062,0.938871667,-22192,-514,-12194,-1060,360,338,989,333,-334,1
400958192,630,-143,-628,-0.98425471,0.159812614,-0.006816649,0.361427831,0.932130119,-22180,-2514,-15280,-633,903,112,971,343,-351,1
400978192,644,4,-516,-0.988169974,0.132760521,-0.005177888,0.364338504,0.931001496,-22086,-106,-12600,47,1130,-55,973,335,-347,1
400998192,685,-84,-433,-0.990036929,0.117496056,-0.004803557,0.378340483,0.925380033,-21488,-1502,-10774,-444,642,-62,973,339,-341,1
401018192,719,-9,-221,-0.991627647,0.102641394,-0.005417925,0.404840328,0.914051279,-21002,-322,-6890,-1002,621,-72,969,329,-324,1
401038192,890,48,54,-0.993346676,0.083828103,-0.007637724,0.436074307,0.899501694,-18324,516,-1874,-1236,774,-7,955,359,-291,1
401058192,1238,106,283,-0.993827445,0.076741319,-0.014978352,0.467546409,0.883399023,-12782,1272,2166,-1289,468,133,961,353,-313,1
401078192,1364,369,375,-0.993372794,0.077840816,-0.030826671,0.501525661,0.864064751,-10762,5114,3638,-1454,163,282,969,359,-330,1
401098192,1306,641,490,-0.99282451,0.076039195,-0.047523384,0.532752909,0.844311923,-11684,9068,5606,-1364,348,139,959,341,-313,1
401118192,1615,559,662,-0.993435435,0.067087239,-0.048152354,0.556725673,0.828606075,-6722,7364,8398,-1000,325,-26,959,357,-316,1
401138192,1703,514,605,-0.993807636,0.059700459,-0.049564723,0.576931654,0.814522607,-5326,6598,7728,-838,270,26,961,353,-307,1
401158196,1275,671,567,-0.992798191,0.061596027,-0.06503617,0.58940753,0.804397142,-12176,8980,7362,-521,288,158,939,355,-296,1
401178196,1051,666,464,-0.99183646,0.059565505,-0.080305739,0.588340882,0.803809874,-15734,8456,5766,152,464,116,959,369,-325,1
401198196,1228,433,493,-0.991069341,0.064203946,-0.085845693,0.580956435,0.808608739,-12868,4346,6074,491,216,-14,957,361,-282,1
401218196,1489,531,435,-0.990582827,0.064055083,-0.091350947,0.579353314,0.809159508,-8672,5740,5062,208,278,-36,945,361,-320,1
401238196,1622,265,-877,-0.993622929,0.046550689,-0.064477924,0.560702175,0.824794708,-6622,2128,-15544,1204,813,-1011,941,363,-307,1
401258196,2002,84,-664,-0.995905805,0.0084718,-0.036676338,0.521956924,0.851589864,-642,140,-10862,2101,1669,-1053,925,367,-249,1
401278196,1796,-926,507,-0.996535629,0.00860792,-0.01324442,0.484194724,0.874377055,-3940,-15252,7850,1961,57,-915,909,371,-222,1
401298196,1709,-984,-179,-0.996425206,-0.01223685,-0.000852572,0.476458168,0.878720565,-5316,-15772,-2456,519,872,-477,913,373,-208,1
401318196,1789,-259,-576,-0.996472724,-0.012041749,0.004820688,0.490594469,0.870871274,-4030,-3986,-8824,-495,8,-193,895,385,-225,1
401338196,1805,-341,-348,-0.996564269,-0.005488664,0.006104105,0.509852678,0.85968899,-3782,-5256,-5384,-743,-243,-12,901,379,-213,1
401358196,1494,-362,-270,-0.996398441,-0.006561734,0.019367706,0.530878045,0.846617684,-8758,-5368,-4266,-847,-133,-246,899,411,-212,1
401378196,1279,-40,-399,-0.996177586,-0.01952319,0.026669512,0.55129943,0.83323973,-12186,230,-6020,-839,218,-253,897,403,-232,1
401398196,1608,35,-407,-0.995867044,-0.028013611,0.028686964,0.563611422,0.824856324,-6914,1546,-5808,-453,115,-99,907,411,-249,1
401418196,1572,-166,-350,-0.995280007,-0.038310919,0.032348043,0.575732181,0.81625035,-7478,-1666,-4514,-452,242,-13,903,407,-229,1
401438196,1412,79,-553,-0.994112084,-0.062782649,0.031602627,0.584154518,0.810278354,-10002,2380,-7092,-267,651,-21,897,421,-219,1
401458196,1253,8,-563,-0.991499931,-0.094548777,0.033417968,0.588264702,0.807228586,-12474,1260,-6224,-66,926,-75,877,415,-211,1
401478196,1142,-125,-370,-0.987679873,-0.124991991,0.038171001,0.590204589,0.80555672,-14128,-816,-1998,36,1047,-72,877,421,-194,1
401498196,1070,-16,-131,-0.984325245,-0.147709006,0.039728573,0.59510611,0.801835557,-15142,1046,2752,-93,963,1,879,413,-168,1
401518196,1085,122,312,-0.983902959,-0.151499571,0.035956059,0.603983698,0.795326632,-14814,3268,10364,-260,701,78,879,429,-184,1
401538196,1327,-172,837,-0.985857725,-0.13672433,0.039894158,0.613472939,0.787784241,-10986,-1524,18502,-306,220,39,859,427,-189,1
401558196,1561,-5,895,-0.986211963,-0.133706644,0.041956939,0.621991985,0.780941293,-7342,1294,18700,-288,-89,5,847,417,-178,1
401578196,1140,553,765,-0.988980778,-0.11513824,0.034404523,0.62861158,0.775991172,-14076,10368,16598,-164,4,-111,853,425,-183,1
401598196,884,533,585,-0.990243889,-0.105797665,0.02653235,0.624614507,0.779521346,-18228,9860,13384,370,326,-253,839,413,-174,1
401618196,675,391,335,-0.989530412,-0.110298039,0.033131255,0.605713064,0.794110369,-21632,7340,8982,1097,177,-346,837,443,-165,1
401638196,754,254,2,-0.988828886,-0.115392478,0.036556917,0.575632483,0.816127529,-20350,5262,3826,1651,176,-287,835,433,-143,1
401658196,1042,-342,0,-0.988710523,-0.113319341,0.045087488,0.544077577,0.837161629,-15740,-4260,3834,1698,10,-177,825,421,-126,1
401678196,1267,-649,31,-0.988543857,-0.111072376,0.054548224,0.521937221,0.850649558,-12134,-8998,4260,1232,25,14,805,425,-143,1
401698196,1151,-385,-113,-0.988268821,-0.109907035,0.061072755,0.510370338,0.857221972,-13984,-4414,1808,707,-42,13,809,415,-127,1
401718196,1093,-19,95,-0.989396088,-0.100560697,0.059045854,0.501588337,0.862548558,-14914,1670,4998,595,-160,11,789,443,-132,1
401738196,1493,-117,271,-0.991083054,-0.0857538,0.055575376,0.493098278,0.867684953,-8566,-74,7400,600,-294,151,801,425,-134,1
401758196,1932,-325,582,-0.992818857,-0.068028295,0.049908575,0.490865931,0.869299408,-1624,-3566,11542,292,-711,249,791,421,-139,1
401778196,2406,-531,797,-0.995054644,-0.030015294,0.044461473,0.500677478,0.863957953,5874,-7040,13750,-279,-1507,275,797,409,-140,1
401798196,2828,-490,531,-0.995574182,0.025291098,0.039587952,0.518615173,0.853508096,12594,-6544,7696,-679,-2193,232,827,411,-164,1
401818196,2744,-382,8,-0.992585761,0.085126664,0.037320547,0.534425346,0.843771156,11348,-4890,-2634,-595,-2389,81,841,405,-202,1
401838196,2443,-429,-541,-0.986283449,0.142098753,0.035245516,0.541609889,0.839242559,6738,-5708,-13286,-190,-2297,72,843,411,-221,1
401858196,2103,-298,-815,-0.978494503,0.189029664,0.036707039,0.544099582,0.837563915,1564,-3566,-19220,52,-1911,-50,867,395,-261,1
401878196,1933,-672,-902,-0.97020782,0.227364225,0.041247429,0.549794104,0.833597135,-880,-9402,-21870,-76,-1562,-209,873,375,-293,1
401898196,1554,-556,-807,-0.96460769,0.250653362,0.040795775,0.565074954,0.823309278,-6752,-7560,-21122,-567,-927,-130,895,405,-290,1
401918196,1306,-84,-600,-0.965334937,0.249895453,0.035505274,0.58752729,0.807724236,-10578,-212,-18388,-993,-681,-18,909,401,-320,1
401938196,996,29,-639,-0.969111219,0.235845029,0.026671502,0.609683225,0.791422633,-15656,1378,-18628,-1018,-226,39,913,379,-323,1
401958196,885,49,-659,-0.97480684,0.211636325,0.017665344,0.629470065,0.775973018,-17630,1418,-18188,-915,146,78,915,389,-340,1
401978196,722,-50,-589,-0.976696076,0.201250117,0.013027114,0.647594953,0.76081272,-20474,-374,-16002,-825,481,14,907,395,-329,1
401998196,496,-12,-611,-0.980048051,0.184047734,0.010165738,0.666695507,0.744096603,-24190,140,-15800,-873,743,-52,909,375,-299,1
402018196,603,-87,-639,-0.983733092,0.163030876,0.006162207,0.688990656,0.723454459,-22600,-1192,-15556,-1080,897,-22,917,389,-310,1
402038196,663,-124,-655,-0.986623727,0.144096544,-0.000493938,0.711518489,0.701222649,-21736,-2002,-15192,-1149,802,101,909,397,-304,1
402058196,611,-266,-681,-0.988820188,0.127720296,-0.006978695,0.734906651,0.676524503,-22638,-4486,-15070,-1239,685,106,919,401,-298,1
402078196,506,-168,-812,-0.991221048,0.106601655,-0.011233231,0.758257516,0.650055988,-24400,-3056,-16472,-1280,869,33,909,395,-310,1
402098196,509,29,-739,-0.993518645,0.079371562,-0.017483115,0.783174042,0.619453274,-24436,-110,-14406,-1460,1110,135,883,403,-290,1
402118196,786,200,-363,-0.994915985,0.055465028,-0.025774278,0.810121039,0.583279854,-20050,2356,-7606,-1686,952,245,891,401,-303,1
402138196,1208,231,2,-0.995078675,0.042841658,-0.038842036,0.830535747,0.552881286,-13296,2568,-1402,-1337,435,307,889,431,-273,1
402158196,1570,442,558,-0.995057277,0.037129691,-0.044571398,0.843816586,0.531816831,-7494,5612,7718,-858,210,222,881,395,-272,1
402178196,1668,593,1111,-0.995060518,0.03544574,-0.045318326,0.859127339,0.506456815,-5928,8004,16622,-1042,35,17,889,411,-302,1
402198196,1723,564,1210,-0.995388187,0.022774622,-0.045561213,0.87528234,0.477780811,-5062,7530,18622,-1173,473,2,885,419,-280,1
402218196,1421,880,1209,-0.995144544,0.024678579,-0.049741081,0.885765349,0.457463479,-9878,12450,18538,-767,-103,177,875,413,-312,1
402238196,78,1036,1450,-0.994188076,0.044776794,-0.056131962,0.899749259,0.428311748,-31342,14738,21744,-1158,-870,245,873,407,-299,1
402258196,1316,1683,273,-0.995186113,0.012275239,-0.05269058,0.897109758,0.434274374,-11566,25202,3974,431,1355,-105,869,413,-301,1
402278196,1429,116,-1408,-0.99599476,-0.016774569,-0.029235372,0.870943861,0.486972,-9816,896,-21938,2549,1298,-937,857,401,-286,1
402298196,1982,-1129,-532,-0.996291533,-0.022267938,-0.004790056,0.829743788,0.555435343,-994,-18220,-7724,3389,299,-1042,823,421,-245,1
402318196,1970,-1208,264,-0.996101718,-0.024196709,0.016254873,0.813126717,0.579408502,-1134,-18796,5028,1325,92,-859,835,409,-218,1
402338196,1746,-549,-287,-0.994985284,-0.042449657,0.035246821,0.816190416,0.574237358,-4674,-7630,-3196,-105,766,-734,801,415,-216,1
402358196,1617,-86,-428,-0.994219307,-0.050307499,0.045582003,0.821895458,0.56528496,-6720,112,-5402,-295,105,-362,813,421,-206,1
402378196,2308,-734,-113,-0.994252948,-0.04469249,0.04880113,0.829710914,0.553327462,4342,-10146,-338,-426,-178,-75,803,451,-215,1
402398196,2463,135,223,-0.994173894,-0.044361563,0.051027158,0.847879592,0.524681401,6820,3830,5030,-1218,75,3,801,453,-215,1
402418196,1487,210,-422,-0.993291162,-0.060081052,0.052927296,0.860733442,0.503065227,-8766,5278,-4988,-887,453,-222,799,455,-208,1
402438196,1476,-118,-532,-0.991895761,-0.07710506,0.057634132,0.869354449,0.487474374,-8910,-20,-6244,-583,428,-88,787,473,-226,1
402458196,1372,-168,-729,-0.989744524,-0.099875839,0.059416444,0.874725265,0.477545662,-10522,-792,-8758,-319,519,59,789,469,-215,1
402478196,1280,-207,-702,-0.986273099,-0.127552981,0.062394266,0.87713607,0.472673541,-11892,-1348,-7400,-87,728,31,809,463,-202,1
402498196,1165,-190,-471,-0.981704051,-0.155791793,0.066393324,0.879630638,0.467282107,-13578,-948,-2636,-106,932,4,791,483,-210,1
402518196,1084,-247,-277,-0.976192368,-0.183630908,0.072952177,0.883084176,0.459553963,-14678,-1704,1538,-200,1126,-3,787,475,-193,1
402538196,1101,-180,-182,-0.970740994,-0.208306257,0.078035336,0.886993861,0.451045884,-14200,-406,3968,-226,1134,-2,769,469,-197,1
402558196,1248,-186,-86,-0.966645293,-0.225311356,0.081701526,0.891446501,0.44151832,-11680,-368,6162,-252,954,54,759,471,-162,1
402578196,1294,-184,120,-0.965193134,-0.230078228,0.084919911,0.897805909,0.427669985,-10860,-224,9768,-420,658,112,773,459,-164,1
402598196,1203,-66,266,-0.965417039,-0.22839997,0.087452746,0.904815279,0.412029019,-12286,1832,12158,-497,537,52,759,481,-162,1
402618196,1018,82,451,-0.967303649,-0.220175112,0.087692538,0.911650207,0.39645849,-15264,4322,15004,-491,465,-3,751,489,-174,1
402638196,1156,225,641,-0.971262088,-0.203334467,0.085258035,0.917815898,0.382399194,-13174,6618,17538,-418,157,-27,751,473,-167,1
402658196,1204,264,844,-0.97638757,-0.178225407,0.083389901,0.922603132,0.370962476,-12582,7184,20022,-300,-123,-91,749,477,-170,1
402678196,1253,507,723,-0.981439468,-0.153117316,0.074024328,0.923972301,0.369467944,-11986,10914,17156,128,-296,-58,755,499,-158,1
402698196,1032,501,424,-0.984493244,-0.138603697,0.062553005,0.921484109,0.377858303,-15650,10516,11768,538,-52,-129,753,499,-161,1
402718196,984,161,165,-0.983975122,-0.140520234,0.065379698,0.912405716,0.398933556,-16508,4718,7250,1067,42,-220,739,501,-155,1
402738196,926,-47,-212,-0.983075785,-0.146406952,0.066124084,0.90058258,0.42507985,-17404,1412,1412,1311,184,-176,725,507,-154,1
402758196,920,-219,-494,-0.981901623,-0.154450513,0.064512788,0.889541723,0.448110245,-17462,-1392,-2838,1196,284,-69,707,495,-142,1
402778196,1113,-324,-61,-0.98157244,-0.156167287,0.065658258,0.88090503,0.464844821,-14358,-3248,4240,962,159,116,717,475,-123,1
402798196,1380,-491,175,-0.982122805,-0.152037622,0.067385827,0.875668485,0.474467298,-10080,-5916,8038,665,137,206,691,461,-138,1
402818196,1848,-539,656,-0.983323876,-0.146903254,0.0613125,0.875528293,0.475559538,-2656,-6616,15308,243,-199,263,691,487,-131,1
402838196,2415,-810,1152,-0.987645026,-0.116439948,0.058913938,0.884999137,0.457877925,6266,-11030,22258,-630,-1183,233,697,481,-108,1
402858196,2917,-658,1160,-0.992952002,-0.058353726,0.058871965,0.902656237,0.421695303,14092,-8598,20514,-1466,-2256,179,703,495,-165,1
402878196,3119,-123,605,-0.994747268,0.018956898,0.059696914,0.921437427,0.378468182,17244,-10,9120,-1750,-3017,37,731,497,-205,1
402898196,2506,90,-418,-0.991415896,0.091221683,0.0514833,0.93139172,0.354272828,7560,3128,-9634,-916,-2864,305,751,493,-231,1
402918196,2217,-78,-817,-0.98458619,0.15042687,0.047079955,0.930031348,0.358450934,3176,296,-17974,319,-2413,226,775,481,-288,1
402938196,2486,-526,-897,-0.975907383,0.197856782,0.055636188,0.924853809,0.37059867,7776,-6592,-20818,754,-1971,-223,771,475,-301,1
402958196,2217,-924,-912,-0.966471601,0.238607867,0.062128103,0.927699395,0.36222934,3784,-12750,-22398,-131,-1659,-309,809,477,-307,1
402978196,1738,-440,-824,-0.958744446,0.268694123,0.060621104,0.93537177,0.341997778,-3622,-5054,-21980,-702,-1188,-137,803,469,-335,1
402998196,1343,-165,-701,-0.958404765,0.272218673,0.056213208,0.944115415,0.318680016,-9732,-864,-20780,-907,-908,-12,809,475,-357,1
403018196,1073,-98,-703,-0.959803404,0.268561538,0.049368042,0.952457266,0.293800166,-14094,6,-20742,-995,-669,37,833,477,-372,1
403038196,773,32,-685,-0.956057031,0.281697791,0.041073172,0.960119683,0.267339926,-18988,1860,-20172,-1025,-462,39,827,481,-394,1
403058196,419,53,-612,-0.954490555,0.288016986,0.033895968,0.967009505,0.242044939,-24582,1958,-19226,-941,-204,6,831,469,-415,1
403078200,243,-6,-584,-0.95579133,0.284268698,0.028097353,0.972770697,0.218206069,-27438,824,-18654,-860,213,-31,837,477,-411,1
403098200,190,29,-583,-0.960217286,0.269248184,0.023133911,0.978007037,0.193653475,-28434,1222,-18146,-875,681,-59,845,481,-401,1
403118200,212,-172,-654,-0.967172593,0.24308908,0.01998717,0.982549205,0.169161124,-28314,-2096,-18422,-848,1140,-107,839,469,-392,1
403138200,293,-334,-757,-0.975053122,0.209229393,0.012850916,0.987585744,0.136715872,-27284,-4924,-18952,-1203,1455,11,825,475,-391,1
403158200,312,-227,-986,-0.981939763,0.17379437,-0.002792533,0.993309038,0.084523385,-27222,-3724,-21442,-2051,1496,247,827,479,-384,1
403178200,592,301,-1061,-0.990364216,0.114788171,-0.025299994,0.996233337,0.031848233,-22900,4208,-21574,-2015,1334,331,823,477,-387,1
403198200,784,617,-772,-0.9932933,0.067630619,-0.053883263,0.995280109,-0.011172868,-20006,8548,-15178,-1605,1100,467,819,479,-356,1
403218200,837,307,-263,-0.993614139,0.048128827,-0.062739917,0.993094126,-0.051669599,-19194,2856,-5760,-1511,725,296,815,475,-362,1
403238200,1267,126,185,-0.99387099,0.035224523,-0.067537975,0.990715576,-0.081989827,-12310,-164,1918,-1084,592,138,793,459,-371,1
403258200,1759,366,679,-0.993902415,0.027276864,-0.069466353,0.988904566,-0.09898291,-4432,3580,9976,-535,298,84,795,465,-397,1
403278200,1797,567,1039,-0.994619332,0.019424152,-0.060977693,0.987621568,-0.115476716,-3842,7076,15990,-501,296,-333,791,477,-370,1
403298200,1853,514,1197,-0.995256454,0.000859452,-0.052295481,0.986437351,-0.128854858,-2972,6510,19128,-381,742,-330,789,479,-357,1
403318200,1873,778,1122,-0.995279446,-0.009970563,-0.049554607,0.985726379,-0.134816157,-2650,10824,18282,-83,449,-84,797,483,-370,1
403338200,1431,774,1126,-0.995296557,-0.00741582,-0.05018711,0.985503783,-0.136311421,-9720,10740,18258,103,-91,52,783,479,-370,1
403358200,939,897,1961,-0.994751507,0.029885139,-0.054356011,0.982522475,-0.154322285,-17590,12570,30412,-582,-1534,188,777,473,-380,1
403378200,1325,1916,-552,-0.99537793,-0.018819595,-0.04459983,0.984557044,-0.144668199,-11438,29194,-8196,566,2018,-371,769,473,-385,1
403398200,1933,-246,-542,-0.99566924,-0.038897278,-0.010707343,0.994198503,-0.06527959,-1766,-4288,-7328,3367,926,-1456,741,497,-317,1
403418200,2145,-1155,502,-0.996118676,-0.025014991,0.01557216,0.996377457,0.020363912,1612,-17968,8922,3606,-553,-1165,723,483,-326,1
403438200,1992,-1497,-503,-0.994664997,-0.047019072,0.037170703,0.994906418,0.048736034,-736,-22734,-6494,1282,885,-896,707,489,-273,1
403458200,1085,-469,-463,-0.992937773,-0.053808102,0.065255362,0.994145751,0.03260324,-15216,-5672,-5956,-548,-63,-703,703,491,-298,1
403478200,2180,-78,-503,-0.99318159,-0.047188761,0.065246693,0.99442913,0.012294939,2328,890,-6496,-665,-191,72,717,513,-294,1
403498200,2246,-336,-270,-0.993168568,-0.04621412,0.066345608,0.994288269,-0.011937864,3386,-3202,-2800,-822,46,29,699,523,-299,1
403518200,1641,544,-125,-0.992302485,-0.051622005,0.074381432,0.993061356,-0.03559676,-6268,11140,-302,-815,312,-249,703,535,-294,1
403538200,1632,-185,-499,-0.991557376,-0.056065271,0.080899477,0.992468782,-0.03815924,-6382,-312,-6150,44,208,-231,695,541,-282,1
403558200,1725,-405,-448,-0.990998235,-0.060842816,0.084072297,0.99194348,-0.044055941,-4874,-3728,-5176,-85,234,-88,677,525,-297,1
403578200,1565,-124,-429,-0.989801684,-0.07700883,0.084531714,0.991234262,-0.056815494,-7410,790,-4524,-375,495,36,679,539,-279,1
403598200,1429,-152,-301,-0.987982862,-0.095447019,0.085944052,0.990358857,-0.067798698,-9528,364,-1794,-298,679,32,691,521,-277,1
403618200,1313,-167,-198,-0.985660009,-0.114561148,0.087811793,0.989303757,-0.078582587,-11300,190,580,-285,829,13,689,529,-291,1
403638200,1124,-99,-65,-0.98333361,-0.131955244,0.089749516,0.988259889,-0.089363769,-14232,1356,3358,-271,861,0,675,531,-292,1
403658200,924,-52,-51,-0.980603237,-0.149430687,0.091481288,0.987448502,-0.09600799,-17354,2160,4082,-115,766,-4,665,523,-281,1
403678200,1087,-160,53,-0.979694212,-0.153243491,0.094411571,0.98681774,-0.099206284,-14686,478,6066,44,436,-10,671,533,-273,1
403698200,1060,-205,101,-0.978698159,-0.159133036,0.095003956,0.986423349,-0.102587776,-15112,-172,6828,23,272,24,661,533,-277,1
403718200,999,-101,126,-0.977671245,-0.164553622,0.096116664,0.985670857,-0.108403996,-16056,1528,7406,-79,265,21,679,527,-251,1
403738200,759,110,41,-0.976030888,-0.172598395,0.098529058,0.984942237,-0.112774881,-19840,4982,6310,-31,368,-39,663,509,-271,1
403758200,475,262,-38,-0.973661141,-0.18355589,0.10145603,0.984692341,-0.112136189,-24308,7512,5410,165,476,-95,645,523,-262,1
403778200,691,170,-5,-0.970610112,-0.198600054,0.101891899,0.985707467,-0.102746116,-20754,6052,6430,538,607,-67,651,529,-264,1
403798200,1056,-217,237,-0.970487781,-0.199399117,0.101987299,0.987031559,-0.090040142,-14834,-240,10716,748,487,30,647,533,-250,1
403818200,1300,-476,455,-0.970665822,-0.19729084,0.104872489,0.987466276,-0.082382489,-10934,-4424,14218,566,489,123,631,531,-229,1
403838200,1202,-162,430,-0.971648315,-0.192354644,0.104697847,0.987336192,-0.083638389,-12510,796,13676,186,440,75,633,521,-229,1
403858200,1174,175,492,-0.974392153,-0.180197306,0.100727692,0.987580478,-0.085081339,-13022,6310,14298,153,178,-80,609,525,-235,1
403878200,1234,204,634,-0.978104111,-0.161436755,0.097331392,0.988185678,-0.08228365,-12184,6666,16000,326,-56,-141,609,519,-232,1
403898200,1399,173,627,-0.982206397,-0.138985047,0.091197844,0.989666276,-0.071155259,-9708,5936,15102,676,-310,-39,587,531,-233,1
403918200,2056,-177,461,-0.985678812,-0.116675679,0.085498153,0.991075402,-0.057814354,588,-34,11204,734,-947,184,627,503,-212,1
403938200,2402,-426,697,-0.990153737,-0.077039905,0.0797436,0.991626494,-0.056196347,5972,-4204,13690,251,-1609,250,605,511,-222,1
403958200,2838,-458,573,-0.993417744,-0.023887539,0.074367793,0.991450343,-0.064768428,12828,-4892,9976,-173,-2120,262,627,509,-219,1
403978200,3005,-395,-48,-0.99351272,0.035320938,0.071927623,0.990886547,-0.075561203,15496,-3964,-1900,-274,-2363,123,643,497,-273,1
403998200,2769,-534,-653,-0.990023993,0.091782063,0.072790206,0.990484526,-0.079703378,11834,-6160,-13430,-2,-2272,-19,665,483,-300,1
404018200,2455,-446,-890,-0.984178744,0.140440315,0.076951326,0.989935249,-0.082846284,7010,-4616,-18824,56,-1968,-156,679,471,-300,1
404038200,2292,-546,-816,-0.976636086,0.184066532,0.082004983,0.988566183,-0.0924157,4650,-6050,-19072,-194,-1749,-240,683,479,-304,1
404058200,1718,-461,-835,-0.970878974,0.213034373,0.082236156,0.986419022,-0.113076422,-4334,-4682,-20334,-659,-1119,-149,709,483,-375,1
404078200,1700,-117,-619,-0.964877982,0.240076803,0.079460876,0.982924411,-0.141211571,-4430,732,-17762,-984,-1015,-123,703,473,-381,1
404098200,1254,-40,-589,-0.966115218,0.23812121,0.073621361,0.97935266,-0.168936163,-11440,1798,-17824,-1027,-577,-68,727,469,-359,1
404118200,800,-23,-579,-0.964536529,0.244524788,0.069225906,0.97405543,-0.195883894,-18828,1900,-17260,-977,-151,-76,753,469,-378,1
404138200,671,-46,-603,-0.965260107,0.243453037,0.062698789,0.968080482,-0.225104244,-20902,1320,-17620,-1075,148,-11,743,479,-402,1
404158200,468,-2,-577,-0.967924554,0.234128674,0.055773705,0.960571144,-0.256259158,-24240,1796,-16896,-1170,492,-9,757,455,-402,1
404178200,411,69,-545,-0.971133735,0.222447207,0.047138365,0.951042946,-0.290980646,-25260,2650,-16002,-1337,585,36,735,463,-405,1
404198200,517,24,-540,-0.974723483,0.207878094,0.035763453,0.939926011,-0.325859847,-23686,1556,-15438,-1390,696,160,749,451,-421,1
404218200,497,17,-600,-0.979262486,0.187391184,0.020330231,0.928228687,-0.358823197,-24156,938,-15728,-1353,911,364,767,433,-413,1
404238200,527,215,-632,-0.983625881,0.163556373,0.007525172,0.919445951,-0.381046163,-23812,3688,-15464,-882,1016,370,769,429,-403,1
404258200,626,234,-500,-0.987482071,0.138040207,0.00446051,0.916211922,-0.388823763,-22350,3890,-12520,-194,1069,98,739,451,-399,1
404278200,630,56,-288,-0.990068033,0.117417281,0.006368784,0.914163899,-0.393558271,-22370,1106,-8452,-36,864,-78,753,457,-379,1
404298200,669,-173,-44,-0.991470415,0.104100531,0.008556524,0.905906174,-0.411927948,-21792,-2486,-4110,-640,570,-151,745,437,-390,1
404318200,928,-153,67,-0.992710929,0.091202049,0.007234327,0.896736704,-0.431412406,-17688,-2210,-1912,-714,553,-5,729,439,-365,1
404338200,1334,125,252,-0.993761949,0.078732934,-0.001404923,0.889096253,-0.44689085,-11234,2042,1558,-554,658,210,723,445,-344,1
404358200,1974,292,398,-0.994183131,0.072879879,-0.00748515,0.880419098,-0.463645436,-998,4428,3982,-617,253,215,717,441,-375,1
404378200,1976,529,376,-0.994734813,0.063790878,-0.007038562,0.869609486,-0.483337561,-986,8234,3930,-746,385,-52,727,455,-386,1
404398200,1576,475,778,-0.995391192,0.052009961,-0.006973614,0.858084202,-0.503413752,-7408,7372,10748,-775,491,-30,719,463,-375,1
404418200,1260,330,925,-0.994890908,0.059423368,-0.018083636,0.847278239,-0.52110392,-12474,4878,13378,-697,356,203,697,461,-378,1
404438200,1137,378,684,-0.994013444,0.066421472,-0.034935528,0.836455178,-0.537344756,-14418,5146,9202,-666,249,367,705,461,-363,1
404458200,1239,556,516,-0.993325818,0.064910902,-0.053435115,0.829416182,-0.546715977,-12764,7478,6424,-347,423,335,697,451,-371,1
404478200,-27,869,513,-0.993467232,0.056423854,-0.058346064,0.815720567,-0.566138225,32540,11992,6368,-815,314,168,699,439,-356,1
404498200,1616,728,-506,-0.994932476,0.045948379,-0.039029813,0.831373181,-0.54480348,-6758,10370,-9592,1273,500,-708,697,441,-344,1
404518200,2083,-69,-682,-0.996361857,0.026799332,-0.004688587,0.857424552,-0.504693935,646,-1256,-11760,2155,841,-1305,677,449,-342,1
404538200,2570,25,228,-0.996423181,0.023835307,0.008503282,0.887250099,-0.450616354,8438,680,2896,2684,135,-455,669,451,-315,1
404558200,2032,-1338,-179,-0.996175716,-0.000985006,0.029311387,0.89746261,-0.428988833,-148,-20446,-2816,1140,1012,-814,687,449,-296,1
404578200,1577,-93,-192,-0.995607538,-0.004379679,0.043620801,0.891114471,-0.440675819,-7398,-76,-3042,-386,34,-533,659,453,-305,1
404598200,1663,132,-335,-0.995786346,-0.007070452,0.041462566,0.884944869,-0.453397827,-6020,3586,-5320,-418,-85,-27,645,463,-297,1
404618200,1600,-504,-432,-0.995488431,-0.007595511,0.045439683,0.88089779,-0.460414268,-7026,-6576,-6658,-172,60,-134,655,473,-296,1
404638200,1264,-200,-854,-0.994408205,-0.037397059,0.057999911,0.880099431,-0.461580904,-12376,-1378,-12962,75,585,-384,649,465,-312,1
404658200,1980,-633,-672,-0.99326494,-0.046480246,0.064787932,0.880437236,-0.459104741,-880,-8004,-9218,232,398,-254,641,475,-293,1
404678200,1989,-499,-262,-0.992655406,-0.055435363,0.066620264,0.870364992,-0.477546701,-710,-5802,-2370,-694,441,-1,643,469,-279,1
404698200,1622,285,-323,-0.991708934,-0.074641267,0.060408692,0.852695834,-0.508938767,-6554,6764,-2828,-1310,753,97,641,491,-310,1
404718200,1458,325,-190,-0.99057726,-0.09167991,0.054155405,0.838935629,-0.531830106,-9130,7236,-66,-925,733,47,613,471,-301,1
404738200,1401,45,-190,-0.98892381,-0.10884198,0.051923824,0.833229911,-0.54094936,-9992,2502,502,-274,711,59,643,481,-306,1
404758200,1154,71,-330,-0.986152403,-0.132197538,0.048665827,0.832109936,-0.542942533,-13870,2834,-1088,64,801,40,637,489,-260,1
404778200,1049,-116,-321,-0.982190236,-0.157852123,0.049576634,0.833772883,-0.540203029,-15432,-286,-92,286,905,36,641,477,-279,1
404798200,1037,-329,-159,-0.978839044,-0.177543538,0.048534762,0.834552292,-0.539178627,-15486,-3674,3276,223,828,56,647,475,-286,1
404818200,1158,-435,-39,-0.976559298,-0.187601315,0.056263322,0.831444463,-0.543298902,-13460,-5410,5664,-23,621,112,633,475,-272,1
404838200,1240,-231,-9,-0.97562293,-0.190981138,0.059712741,0.823745333,-0.554327358,-12106,-1862,6294,-360,415,144,639,481,-265,1
404858200,1095,151,124,-0.977093611,-0.184884861,0.056545946,0.810071651,-0.574522927,-14436,4456,8324,-806,177,113,633,473,-254,1
404878200,1009,248,484,-0.980261089,-0.168511931,0.05216516,0.797795272,-0.591560783,-15870,5934,13818,-664,83,42,621,493,-264,1
404898200,814,254,347,-0.978525383,-0.177405411,0.055462019,0.79199655,-0.599067304,-19042,5882,11364,-239,405,-39,627,487,-268,1
404918200,600,241,122,-0.97616527,-0.1876288,0.061648691,0.79333511,-0.596601143,-22390,5876,8102,227,441,-244,635,483,-290,1
404938200,928,74,-36,-0.974328637,-0.196427602,0.063326513,0.804947035,-0.58082659,-17082,3258,5862,932,333,-199,607,485,-275,1
404958200,1338,-294,222,-0.975222733,-0.191187892,0.066161256,0.812925505,-0.569402205,-10492,-2684,10150,757,184,-27,627,473,-260,1
404978200,1376,-210,489,-0.977384835,-0.17873754,0.068893749,0.812912911,-0.568982739,-9926,-1186,14160,213,107,6,593,487,-239,1
404998204,1202,300,392,-0.980339454,-0.165763307,0.06043898,0.814092239,-0.568418536,-12798,7056,12138,247,23,9,603,495,-238,1
405018204,1033,250,233,-0.980531404,-0.163002746,0.064567463,0.819461688,-0.560197998,-15604,6114,9068,527,-119,-208,601,487,-251,1
405038204,856,251,248,-0.980830342,-0.158795495,0.070381716,0.830854373,-0.542529965,-18450,6324,9178,967,-209,-350,593,491,-229,1
405058204,1189,-205,77,-0.982970959,-0.144831413,0.07091899,0.847238822,-0.516595552,-13174,-1056,6188,1425,-393,-76,583,491,-230,1
405078204,1713,-417,-120,-0.985553134,-0.1305528,0.063492259,0.859265555,-0.497543724,-4894,-4590,2364,1113,-632,192,583,477,-235,1
405098204,1925,-378,-178,-0.988464693,-0.111312393,0.055204246,0.866326226,-0.486210609,-1596,-4238,806,744,-803,289,585,455,-245,1
405118204,2239,-529,253,-0.991712876,-0.081666261,0.0496965,0.8654924,-0.488177724,3318,-6836,6732,98,-1188,257,587,449,-258,1
405138204,2623,-748,196,-0.994484032,-0.042046057,0.04565882,0.857554644,-0.502204001,9364,-10472,4528,-481,-1563,232,573,447,-229,1
405158204,2618,-595,-173,-0.995652508,0.005649207,0.044012166,0.843837358,-0.525084535,9238,-8078,-2932,-917,-1875,116,625,443,-273,1
405178204,2450,-444,-391,-0.994343251,0.055896483,0.042637305,0.828605253,-0.548812585,6590,-5704,-8064,-982,-1976,50,645,453,-310,1
405198204,2264,-244,-694,-0.990953492,0.100432677,0.042137701,0.815974064,-0.567184001,3728,-2522,-14376,-744,-1757,-23,663,457,-321,1
405218204,2009,-247,-655,-0.986606611,0.136582201,0.045513474,0.807754686,-0.578539018,-200,-2460,-14946,-387,-1436,-177,675,421,-353,1
405238204,1940,-471,-612,-0.98205464,0.165380171,0.050890335,0.798382107,-0.590986753,-1152,-5868,-15204,-429,-1137,-285,681,445,-354,1
405258204,1535,-267,-608,-0.981821455,0.167911215,0.052796484,0.783720061,-0.610922165,-7530,-2654,-15728,-858,-667,-90,691,431,-393,1
405278204,1358,28,-341,-0.981067456,0.173996776,0.046173288,0.764636565,-0.634904297,-10360,2024,-11542,-1120,-663,-7,691,439,-403,1
405298204,1113,30,-378,-0.981759859,0.171842154,0.040213032,0.746024011,-0.657132978,-14286,1858,-12136,-1046,-421,-23,715,435,-409,1
405318204,856,-20,-388,-0.980579689,0.177778659,0.036347241,0.726189204,-0.678251894,-18456,874,-12018,-1032,-166,-26,735,423,-433,1
405338204,730,0,-375,-0.979972899,0.182103872,0.031123805,0.704079444,-0.701295661,-20444,1022,-11960,-1151,-113,2,735,421,-429,1
405358204,682,2,-405,-0.979900807,0.183311826,0.025859135,0.680461664,-0.724322515,-21208,880,-12480,-1193,9,-8,737,417,-450,1
405378204,641,21,-443,-0.980925635,0.178457074,0.019039861,0.657331757,-0.745457398,-21898,960,-12930,-1137,250,69,731,415,-453,1
405398204,649,-10,-522,-0.983010801,0.166827409,0.012834398,0.634406749,-0.765050001,-21840,262,-13808,-1086,522,63,737,391,-439,1
405418204,789,37,-569,-0.985856429,0.149534754,0.005671695,0.612863898,-0.782579333,-19690,778,-13998,-996,740,135,727,393,-446,1
405438204,710,-32,-653,-0.988160882,0.132684244,-0.001180457,0.592490438,-0.79790839,-21032,-548,-14786,-901,716,155,733,383,-454,1
405458204,611,144,-708,-0.99019089,0.115977131,-0.005757196,0.576173214,-0.809710057,-22678,2116,-15124,-670,700,109,735,405,-445,1
405478204,545,162,-412,-0.991948146,0.099782579,-0.006209264,0.566907704,-0.816322803,-23788,2390,-9860,-297,676,-6,759,385,-433,1
405498204,503,81,-90,-0.992757872,0.090458713,-0.005077056,0.555713281,-0.82381919,-24488,1130,-4400,-379,398,-73,751,393,-454,1
405518204,644,-37,58,-0.993451087,0.082316544,-0.00469077,0.536102822,-0.836689251,-22256,-746,-1764,-786,346,-71,753,379,-424,1
405538204,1244,53,36,-0.994252386,0.071817433,-0.007856958,0.519652041,-0.84704032,-12680,602,-1790,-631,420,82,743,395,-400,1
405558204,1748,228,166,-0.994797148,0.062157802,-0.01144718,0.507035725,-0.854493983,-4636,3274,624,-441,409,130,745,377,-395,1
405578204,1790,409,299,-0.995142374,0.056956625,-0.008038466,0.492163811,-0.863191271,-3972,6280,2918,-525,224,-154,741,389,-427,1
405598204,1411,267,680,-0.995056743,0.059084859,-0.008472497,0.475427931,-0.872559462,-10056,4152,9314,-609,382,-189,741,391,-428,1
405618204,1492,253,870,-0.994988846,0.05949695,-0.010900607,0.45955245,-0.880917896,-8738,3692,11974,-571,-3,81,721,393,-423,1
405638204,1567,306,772,-0.994703336,0.061250715,-0.019738268,0.445247743,-0.887944404,-7530,4250,10350,-504,-61,345,739,403,-400,1
405658204,1634,447,587,-0.994800277,0.057504794,-0.026778402,0.441397123,-0.889787594,-6456,6274,7504,-24,163,301,735,385,-432,1
405678204,2461,483,1107,-0.993129518,0.082392864,-0.02597775,0.440097889,-0.890395144,6824,6878,15016,106,-997,-14,725,359,-415,1
