timestamp,ax,ay,az,roll1,roll2,pitch,yaw1,yaw2,fx,fy,fz,gx,gy,gz,mx,my,mz,step
572218640,1258,165,-367,-0.94650203,-0.269047456,-0.152357364,0.417198479,-0.888787227,0,0,0,-155,232,-143,1125,-301,-73,2
572238640,1252,157,-377,-0.945953323,-0.272533882,-0.14949763,0.415235033,-0.890198085,0,0,0,-153,282,-157,1121,-293,-68,2
572258640,1250,155,-412,-0.944908354,-0.277657274,-0.146620316,0.413737986,-0.891393263,0,0,0,-131,347,-163,1123,-301,-35,2
572278640,1234,146,-444,-0.94346427,-0.284172373,-0.143405481,0.412302429,-0.892616915,0,0,0,-130,398,-176,1119,-303,-67,2
572298640,1212,132,-476,-0.941273872,-0.293106988,-0.139173174,0.410485502,-0.894034872,-11472,-2470,1918,-146,435,-178,1107,-307,-20,2
572318640,1224,104,-468,-0.939664928,-0.299940113,-0.135498583,0.408277625,-0.895657668,0,0,0,-169,404,-172,1123,-285,-23,2
572338640,1216,78,-459,-0.938156571,-0.306838954,-0.129954517,0.405977737,-0.897462614,-11292,-3068,2664,-180,377,-181,1103,-289,-16,2
572358640,1235,33,-449,-0.936953407,-0.313059762,-0.123178281,0.403870448,-0.899306143,-10942,-3594,3044,-179,368,-195,1109,-275,-10,2
572378640,1215,77,-445,-0.93593731,-0.317731608,-0.119377403,0.401847301,-0.900843624,0,0,0,-167,329,-175,1105,-287,-11,2
572398640,1240,42,-444,-0.934772512,-0.322760124,-0.11480123,0.40114004,-0.901755322,-10786,-3164,3458,-96,349,-149,1107,-257,-5,2
572418640,1304,-52,-459,-0.933737252,-0.327569909,-0.108453197,0.401262548,-0.902335115,-9722,-4524,3384,-65,356,-153,1095,-263,28,2
572438640,1282,-74,-452,-0.933103263,-0.331545794,-0.101838271,0.40075596,-0.903386906,-10048,-4668,3624,-91,317,-145,1091,-283,30,2
572458640,1292,-65,-415,-0.933064405,-0.333171286,-0.096631429,0.400704186,-0.9039697,-9882,-4342,4298,-56,256,-109,1089,-287,13,2
572478640,1314,-63,-376,-0.933548082,-0.333427258,-0.092100091,0.402107978,-0.903994242,-9532,-4158,4958,6,239,-111,1087,-275,37,2
572498640,1290,3,-391,-0.933382925,-0.334444897,-0.08921794,0.404913902,-0.90292082,-9924,-2958,4748,71,273,-131,1077,-271,51,2
572518640,1242,80,-400,-0.932315599,-0.337284664,-0.089447005,0.410146464,-0.900523558,-10678,-1658,4662,196,316,-142,1091,-259,65,2
572538640,1253,61,-449,-0.931111559,-0.340401232,-0.090128143,0.417968141,-0.896874713,-10462,-1988,3970,313,327,-160,1095,-273,49,2
572558640,1238,18,-448,-0.93029312,-0.342718462,-0.088902106,0.427339513,-0.892473437,-10670,-2696,4066,376,306,-187,1083,-283,41,2
572578640,1208,-10,-478,-0.928921819,-0.346971512,-0.087193364,0.436998378,-0.888059216,-11112,-3108,3700,391,355,-192,1079,-257,48,2
572598640,1222,-17,-512,-0.92713155,-0.35199281,-0.085613162,0.445754088,-0.883826721,-10836,-3170,3308,358,367,-171,1081,-277,39,2
572618640,1228,-64,-553,-0.925276626,-0.357241012,-0.083602601,0.452701492,-0.88048056,-10684,-3890,2802,294,345,-124,1085,-289,29,2
572638640,1214,-79,-596,-0.92272508,-0.364295976,-0.081660728,0.457654729,-0.878188431,-10832,-4074,2318,219,380,-82,1077,-301,56,2
572658640,1201,-46,-654,-0.919015232,-0.373371072,-0.081207979,0.461115161,-0.876308361,-10934,-3506,1666,172,437,-35,1079,-277,48,2
572678640,1182,-25,-695,-0.914795667,-0.383708663,-0.081115373,0.463434637,-0.875208646,-11108,-3152,1324,124,456,-19,1071,-275,64,2
572698640,1191,-7,-670,-0.910756547,-0.392835895,-0.081754505,0.464940358,-0.874261275,-10828,-2872,2054,95,442,7,1055,-289,51,2
572718640,1170,8,-655,-0.906583872,-0.402285948,-0.082530932,0.465567484,-0.873949656,-11020,-2648,2614,55,467,16,1041,-291,74,2
572738640,1172,34,-640,-0.902396848,-0.41127939,-0.083834946,0.466269962,-0.873467937,-10844,-2256,3168,58,477,14,1053,-303,48,2
572758640,1145,4,-592,-0.898447817,-0.419698039,-0.084261152,0.468369108,-0.872316934,-11134,-2776,4238,113,496,-18,1029,-299,66,2
572778640,1153,5,-602,-0.893832078,-0.429000685,-0.085304974,0.471859435,-0.870236406,-10854,-2792,4394,181,555,-26,1041,-291,68,2
572798640,1181,11,-616,-0.88883994,-0.438968692,-0.086767558,0.476327056,-0.867717894,-10236,-2740,4504,225,601,-37,1009,-305,71,2
572818640,1253,11,-614,-0.884047877,-0.447999552,-0.088628042,0.48115059,-0.864802012,-8912,-2802,4866,249,611,-29,1025,-317,88,2
572838640,1256,10,-553,-0.880080294,-0.455468629,-0.090494255,0.485759182,-0.862137811,-8708,-2882,6124,237,596,-21,1005,-307,113,2
572858640,1231,22,-511,-0.876419328,-0.461969674,-0.092791825,0.490182813,-0.859395005,-8976,-2758,7034,235,591,-13,985,-319,104,2
572878640,1274,13,-485,-0.873225231,-0.467516029,-0.09539351,0.494466987,-0.856730843,-8166,-2996,7666,236,592,12,973,-325,101,2
572898640,1308,45,-480,-0.869906617,-0.472865561,-0.098410975,0.498327242,-0.85406051,-7506,-2564,7938,215,611,15,977,-333,107,2
572918640,1302,70,-452,-0.867065873,-0.477265604,-0.10259469,0.502782846,-0.851048591,-7496,-2284,8548,253,597,25,959,-333,122,2
572938640,1331,92,-409,-0.864942582,-0.479935119,-0.107916694,0.508771611,-0.846847991,-6946,-2096,9358,330,576,18,939,-327,146,2
572958640,1341,94,-320,-0.864418667,-0.479476292,-0.113315945,0.516406339,-0.841410417,-6740,-2242,10820,398,523,-16,955,-337,158,2
572978640,1356,156,-265,-0.864916291,-0.476933116,-0.120615133,0.525361065,-0.834938759,-6500,-1450,11648,468,477,-19,945,-347,122,2
572998640,1383,201,-197,-0.866299767,-0.472168304,-0.130078168,0.536338113,-0.826686203,-6096,-1012,12620,583,449,-16,913,-367,124,2
573018640,1508,198,-133,-0.869390752,-0.463520372,-0.139769114,0.548860889,-0.816733623,-4182,-1396,13404,666,346,-18,913,-369,121,2
573038640,1566,20,103,-0.877470691,-0.445763977,-0.14786239,0.562821053,-0.805911044,-3452,-4620,16692,741,81,37,913,-401,100,2
573058640,2034,-132,-39,-0.879143771,-0.43883926,-0.158317469,0.571170984,-0.798012109,3732,-7278,13762,573,-52,87,893,-401,85,2
573078640,2032,358,349,-0.892472945,-0.406638045,-0.169954019,0.573684486,-0.793804416,3256,184,18924,337,-1240,264,893,-415,76,2
573098640,1903,379,1314,-0.922218783,-0.325849984,-0.186608274,0.565738758,-0.795892674,164,-28,31790,-66,-3453,662,907,-447,33,2
573118640,1195,847,-28,-0.934201423,-0.27310616,-0.211591084,0.555200744,-0.797208684,-11534,7050,8752,-279,-1900,555,915,-443,-44,2
573138640,1416,663,-37,-0.942867575,-0.212578835,-0.242378095,0.579664946,-0.770972788,-8280,2924,6596,1560,-1837,542,903,-487,-70,2
573158640,1806,-70,-391,-0.946018185,-0.172310324,-0.262765818,0.617435362,-0.734596292,-2134,-9638,-574,2212,-973,296,899,-481,-116,2
573178640,2219,-163,-995,-0.946441181,-0.155206934,-0.272198825,0.654530378,-0.698373238,4468,-11422,-10806,2106,28,-72,883,-519,-174,2
573198640,2132,8,-1226,-0.950172231,-0.131807299,-0.272039569,0.678887166,-0.675028982,2966,-8678,-15286,1323,-458,-302,855,-503,-246,2
573218640,1990,-1,-1084,-0.956037974,-0.097473139,-0.265869265,0.690919718,-0.665044907,500,-8628,-14136,564,-1131,-409,839,-515,-229,2
573238640,1753,55,-1061,-0.961214924,-0.060215468,-0.258256158,0.695253057,-0.663384829,-3464,-7492,-14990,113,-1374,-405,845,-515,-251,2
573258640,1663,161,-926,-0.965208134,-0.01795255,-0.249999058,0.694573836,-0.667197112,-5036,-5534,-14212,-177,-1655,-414,865,-511,-247,2
573278640,1552,237,-876,-0.965877825,0.026826199,-0.247086804,0.686434286,-0.676550129,-6840,-4226,-14874,-534,-1844,-203,859,-497,-266,2
573298640,1354,277,-725,-0.965122484,0.05743365,-0.246526755,0.673409052,-0.690484352,-9934,-3598,-13972,-643,-1937,-98,865,-515,-268,2
573318640,1129,114,-857,-0.964579366,0.080587877,-0.242486078,0.661145285,-0.703674333,-13480,-6142,-16984,-559,-1777,-168,863,-471,-280,2
573338640,992,-31,-879,-0.964443389,0.102407625,-0.234506182,0.64537115,-0.720563406,-15634,-8284,-18108,-744,-1841,-266,873,-467,-309,2
573358640,853,-36,-819,-0.963300234,0.123627167,-0.229207222,0.624668146,-0.740234811,-17802,-8188,-17878,-965,-1915,-210,879,-471,-273,2
573378640,769,80,-755,-0.956048504,0.165124357,-0.232276407,0.606596261,-0.753026821,-19064,-6272,-17458,-950,-1791,-88,911,-465,-268,2
573398640,755,169,-663,-0.948488504,0.20135675,-0.235568224,0.594323082,-0.761905799,-19016,-4948,-17196,-659,-1537,-66,923,-467,-276,2
573418640,812,154,-621,-0.941405712,0.231336903,-0.236797455,0.587548645,-0.766674031,-17868,-5226,-17508,-371,-1207,-108,935,-471,-299,2
573438640,777,154,-623,-0.935658854,0.254562607,-0.236095903,0.584087569,-0.769541994,-18236,-5200,-18306,-200,-887,-158,963,-451,-303,2
573458640,729,134,-583,-0.930744346,0.273349699,-0.234763951,0.581713201,-0.771743337,-18840,-5478,-18282,-143,-682,-171,965,-461,-304,2
573478640,649,212,-487,-0.925664993,0.28953301,-0.235681502,0.578031728,-0.774204452,-19956,-4258,-17276,-215,-591,-100,957,-457,-303,2
573498640,605,286,-368,-0.921136545,0.301671004,-0.238546817,0.572545925,-0.777479509,-20508,-3166,-15772,-311,-444,-49,967,-461,-306,2
573518640,642,245,-164,-0.916851722,0.311071001,-0.243136122,0.564579219,-0.78182018,-19778,-3968,-12816,-436,-358,-21,995,-455,-292,2
573538640,866,333,19,-0.912686605,0.318518512,-0.249511279,0.555508805,-0.786412055,-16054,-2764,-10134,-500,-296,30,993,-453,-307,2
573558640,1346,288,227,-0.906981019,0.329766763,-0.256099007,0.545524362,-0.791378472,-8122,-3736,-7332,-509,-693,88,995,-475,-310,2
573578640,1563,300,434,-0.896849085,0.350864729,-0.264146808,0.535687406,-0.795444051,-4338,-3834,-4632,-550,-1054,176,1001,-477,-297,2
573598640,1530,417,886,-0.882153388,0.376444487,-0.279054273,0.526451033,-0.796747701,-4440,-2356,1848,-576,-1167,348,1007,-477,-305,2
573618640,1579,338,1333,-0.866021462,0.402160104,-0.294462855,0.513985805,-0.799635608,-3128,-4106,8158,-730,-1258,294,1013,-469,-307,2
573638640,1431,355,1215,-0.854925148,0.419419747,-0.303373634,0.500645993,-0.804889673,-5130,-4110,5700,-703,-881,-2,1011,-491,-313,2
573658640,1637,509,1114,-0.854177104,0.41841965,-0.307126821,0.490987049,-0.809551064,-1798,-1762,4110,-487,43,-136,1023,-495,-307,2
573678640,1182,675,729,-0.854691401,0.411174886,-0.315902807,0.485211857,-0.809940906,-9174,746,-1746,-334,487,-15,1043,-477,-290,2
573698640,986,774,467,-0.860723011,0.391930578,-0.324151656,0.485610195,-0.806568833,-12522,2216,-5396,47,1055,-64,1027,-485,-307,2
573718644,-215,733,-536,-0.889982013,0.330538956,-0.311846215,0.481284354,-0.813591279,-32642,1662,-19378,-117,2969,-659,1023,-469,-259,2
573738644,1672,179,-493,-0.89796987,0.315817846,-0.303436035,0.502499206,-0.803749757,-2686,-6930,-18230,974,1166,-89,1037,-475,-260,2
573758644,2264,-254,613,-0.901199326,0.312933914,-0.296394624,0.511277199,-0.800761588,6690,-13634,-446,411,434,-235,1045,-495,-231,2
573778644,1599,-447,-768,-0.911378559,0.282398816,-0.295528741,0.501183258,-0.807379456,-4290,-16698,-21536,-486,1376,-270,1037,-475,-230,2
573798644,1164,314,-948,-0.927076383,0.236134229,-0.287336369,0.490605192,-0.817551885,-11562,-4230,-23650,-219,1135,-531,1035,-465,-210,2
573818644,886,-13,-880,-0.940193642,0.197796127,-0.272036349,0.491333898,-0.821999187,-16424,-9160,-21338,270,881,-454,1049,-451,-188,2
573838644,1313,-94,-872,-0.949444782,0.160470759,-0.263325791,0.489941243,-0.825361947,-9932,-10264,-19850,77,952,-120,1051,-463,-158,2
573858644,1427,12,-817,-0.957145717,0.119415667,-0.256426019,0.482002411,-0.832075555,-8414,-8304,-17556,-249,1099,-162,1049,-449,-138,2
573878644,1328,78,-595,-0.962221278,0.080728283,-0.251726504,0.472772067,-0.838629121,-10210,-7072,-12628,-341,1107,-106,1035,-455,-129,2
573898644,1335,112,-435,-0.965089442,0.046019299,-0.248631522,0.464497151,-0.84393454,-10220,-6420,-8804,-328,1103,-41,1043,-467,-104,2
573918644,1290,74,-387,-0.967047904,0.0125544,-0.243904387,0.459319741,-0.847843647,-11010,-6900,-6890,-206,1146,-63,1013,-439,-85,2
573938644,1279,55,-254,-0.968002234,-0.016566709,-0.238908674,0.456709109,-0.850426801,-11222,-7062,-3692,-121,1132,-49,1011,-439,-45,2
573958644,1285,26,-147,-0.968471495,-0.041265713,-0.232941969,0.457261015,-0.851498075,-11140,-7352,-1064,-14,1108,-66,1015,-441,-15,2
573978644,1267,-65,-103,-0.969255514,-0.063426524,-0.223994533,0.461352527,-0.851651641,-11434,-8582,414,116,1093,-123,999,-445,-8,2
573998644,1242,-14,-119,-0.969064679,-0.086630912,-0.216230816,0.465761621,-0.851156281,-11842,-7472,930,133,1153,-136,993,-453,28,2
574018644,1225,140,-130,-0.967052657,-0.11081006,-0.213806309,0.470618885,-0.849115048,-12074,-4814,1562,181,1223,-77,981,-455,21,2
574038644,1201,205,-127,-0.96309774,-0.139452362,-0.21464393,0.478464518,-0.844604025,-12346,-3718,2554,339,1452,-78,981,-449,45,2
574058644,1313,11,-266,-0.957747972,-0.177148724,-0.209667036,0.488258904,-0.840089846,-10356,-6842,1542,411,1817,-113,959,-451,69,2
574078644,1396,-34,-292,-0.951959763,-0.21055905,-0.20447048,0.494565871,-0.837684074,-8822,-7420,2238,243,1634,-70,951,-461,93,2
574098644,1423,-2,-342,-0.946825529,-0.235965164,-0.200045537,0.496400258,-0.837662043,-8224,-6740,2264,46,1253,-33,919,-451,133,2
574118644,1305,41,-251,-0.943553653,-0.253386,-0.193654067,0.496883716,-0.838838371,-9996,-5808,4352,-71,975,-135,905,-471,126,2
574138644,1311,53,-145,-0.941449227,-0.266388269,-0.185988517,0.497613998,-0.840125892,-9808,-5350,6556,-105,894,-203,901,-463,144,2
574158644,1403,31,-110,-0.939799361,-0.277088793,-0.178237766,0.499549322,-0.840637775,-8266,-5460,7508,-56,861,-211,917,-449,138,2
574178644,1368,102,-222,-0.93506268,-0.294686535,-0.174113901,0.501916554,-0.839971932,-8700,-4144,6240,17,1099,-145,899,-455,162,2
574198644,1323,183,-355,-0.927495977,-0.317282366,-0.174262656,0.504930241,-0.838090349,-9222,-2768,4742,107,1192,-104,881,-445,183,2
574218644,1290,180,-343,-0.920985395,-0.335921431,-0.173796964,0.510163067,-0.835112516,-9506,-2826,5602,191,1122,-130,873,-445,193,2
574238644,1299,114,-262,-0.915982209,-0.350376047,-0.171161275,0.51771608,-0.830952466,-9164,-3842,7442,263,1051,-197,865,-449,208,2
574258644,1251,63,-251,-0.910550416,-0.365412295,-0.168275811,0.526336379,-0.826107241,-9742,-4594,8124,317,1106,-195,849,-441,216,2
574278644,1225,94,-277,-0.904278126,-0.380627984,-0.168555725,0.534620401,-0.820868291,-9954,-4082,8192,349,1111,-109,823,-467,221,2
574298644,1286,112,-218,-0.899016682,-0.391463937,-0.171366949,0.543378692,-0.814459013,-8780,-3876,9556,410,1021,-40,817,-481,234,2
574318644,1497,97,-169,-0.895283615,-0.398229012,-0.175293692,0.554181146,-0.806374032,-5252,-4264,10612,525,935,-19,813,-481,236,2
574338644,1688,132,-171,-0.895091251,-0.395969726,-0.181488248,0.566554651,-0.796421826,-2186,-3896,10512,641,564,18,815,-491,212,2
574358644,1832,35,-2,-0.896068309,-0.389162518,-0.19143503,0.577295426,-0.786399642,-54,-5676,12726,674,-1,48,805,-497,219,2
574378644,2166,164,183,-0.901449051,-0.371513501,-0.201576501,0.584323857,-0.778744116,5114,-3936,15106,512,-517,134,817,-491,196,2
574398644,2437,498,1173,-0.920430671,-0.313213542,-0.215700794,0.583380189,-0.775776878,8800,948,29078,210,-2375,439,855,-519,157,2
574418644,1662,771,853,-0.934416875,-0.258871704,-0.228370261,0.574019253,-0.779164821,-4058,4910,22170,-250,-2263,526,883,-487,135,2
574438644,1358,1202,416,-0.939602304,-0.213250078,-0.254430559,0.59119097,-0.75834191,-9086,10980,13674,1264,-1478,679,891,-533,94,2
574458644,1676,315,218,-0.942492988,-0.167838464,-0.278488943,0.626098495,-0.721586103,-4102,-3976,9028,2168,-1179,461,895,-529,40,2
574478644,2212,-286,-724,-0.942183267,-0.143039668,-0.294126852,0.672927517,-0.672111915,4478,-14086,-6852,2797,-60,84,885,-557,-27,2
574498644,2401,-289,-1305,-0.94368775,-0.123642551,-0.298465989,0.705175918,-0.636433724,7472,-14264,-16804,1926,-65,-189,891,-559,-92,2
574518644,2287,-164,-1229,-0.948952556,-0.091197805,-0.293604355,0.721324444,-0.620420622,5486,-12108,-16664,862,-953,-389,915,-531,-140,2
574538644,1918,-215,-1245,-0.954639658,-0.054288156,-0.284075067,0.728433624,-0.616318949,-608,-12626,-18126,251,-1325,-493,935,-533,-176,2
574558644,1824,-156,-1070,-0.959384924,-0.010739038,-0.272896932,0.726757536,-0.623076776,-2274,-11334,-16748,-301,-1760,-527,941,-529,-183,2
574578644,1699,145,-998,-0.95988222,0.037615037,-0.269078916,0.716509042,-0.63625882,-4298,-6398,-17172,-708,-2067,-245,963,-463,-191,2
574598644,1506,273,-940,-0.956708238,0.088345259,-0.269257126,0.704335,-0.649643876,-7282,-4356,-17908,-765,-2187,-120,983,-473,-225,2
574618644,1148,242,-883,-0.955287738,0.115755728,-0.265599912,0.691731879,-0.665546322,-12856,-4754,-18578,-600,-2041,-273,1007,-455,-236,2
574638644,963,18,-888,-0.955078909,0.136032294,-0.25625391,0.680623425,-0.680172594,-15764,-8158,-19384,-498,-1782,-354,1017,-431,-266,2
574658644,811,-163,-883,-0.95514575,0.153374521,-0.245626846,0.666379806,-0.697635332,-18150,-10826,-19914,-667,-1755,-304,1013,-417,-279,2
574678644,750,-236,-884,-0.954296052,0.169015221,-0.238380188,0.645396806,-0.719283985,-19074,-11808,-20454,-1006,-1784,-181,1043,-401,-331,2
574698644,680,-30,-958,-0.951932803,0.180030953,-0.239958883,0.615601143,-0.744355755,-20140,-8388,-22058,-1366,-1755,-127,1053,-377,-335,2
574718644,608,197,-874,-0.942483127,0.215741595,-0.247144805,0.588281501,-0.762946434,-21196,-4874,-21022,-1411,-1704,-66,1067,-365,-337,2
574738644,567,256,-801,-0.933528349,0.244994543,-0.254567243,0.566646352,-0.776869334,-21536,-4160,-20830,-1117,-1390,-35,1069,-365,-352,2
574758644,521,368,-783,-0.926246177,0.264961375,-0.261601946,0.55168445,-0.78528499,-22026,-2588,-21202,-776,-913,11,1087,-353,-368,2
574778644,433,384,-819,-0.921251468,0.274880996,-0.269347523,0.541181613,-0.790033236,-23266,-2576,-22108,-562,-424,90,1071,-351,-382,2
574798644,368,394,-702,-0.917894369,0.278355418,-0.277617182,0.532955877,-0.792925257,-24194,-2676,-20352,-454,-119,140,1073,-339,-377,2
574818644,358,359,-437,-0.915916497,0.27715173,-0.285679994,0.524694277,-0.795731205,-24288,-3490,-16072,-452,84,133,1081,-323,-370,2
574838644,892,162,38,-0.911110431,0.282964241,-0.295732214,0.513984799,-0.799161214,-15590,-6958,-8660,-572,-268,180,1079,-333,-355,2
574858644,1635,-2,517,-0.896771174,0.31611551,-0.30695227,0.504628336,-0.801250907,-3242,-9936,-2076,-519,-1487,236,1071,-333,-380,2
574878644,2047,335,841,-0.874365393,0.367520563,-0.315318914,0.491254235,-0.806465203,4066,-4812,1436,-689,-2417,28,1083,-353,-418,2
574898644,1613,835,1626,-0.85492222,0.408408821,-0.318969464,0.47500612,-0.814766841,-2232,3078,12648,-766,-2019,-249,1065,-331,-445,2
574918644,1900,1117,2041,-0.851309035,0.422212265,-0.310017739,0.461028105,-0.825794147,2494,7874,18826,-517,-670,-721,1081,-347,-451,2
574938644,1102,1058,1898,-0.856606923,0.413936911,-0.306289549,0.466404893,-0.824142011,-10442,7048,16804,237,647,-121,1081,-317,-469,2
574958644,737,953,822,-0.863724001,0.392276376,-0.315122467,0.486224951,-0.809624555,-16760,5468,530,829,1791,160,1099,-285,-444,2
574978644,1064,666,1340,-0.879119515,0.373235386,-0.293279277,0.502471417,-0.807240356,-11802,1180,9220,885,1361,-653,1083,-293,-442,2
574998644,613,610,-1479,-0.908985974,0.296815675,-0.289409874,0.515291424,-0.801418232,-19800,698,31290,993,2734,-271,1075,-273,-387,2
575018644,2120,-661,191,-0.909341808,0.304178519,-0.279193762,0.532809786,-0.792619461,4108,-19610,-6902,841,112,-231,1079,-275,-346,2
575038644,2138,-504,-172,-0.914338175,0.284355668,-0.283562033,0.525214799,-0.796050498,4238,-17232,-12066,-404,929,-16,1055,-265,-345,2
575058644,1181,204,-1375,-0.92433518,0.254011329,-0.279362493,0.512203796,-0.805848513,-11406,-5774,-30316,-618,1318,-430,1091,-253,-324,2
575078644,910,-146,-1040,-0.938796498,0.216116127,-0.262307171,0.507308276,-0.815157803,-15944,-11036,-24540,-4,729,-525,1097,-229,-301,2
575098644,1258,46,-1096,-0.948386407,0.178374138,-0.255777843,0.503796758,-0.819565941,-10772,-7674,-24122,18,819,-188,1081,-239,-287,2
575118644,1317,153,-946,-0.955846531,0.13731773,-0.252597135,0.495199561,-0.825620234,-10136,-5824,-20290,-242,996,-142,1071,-229,-263,2
575138644,1343,244,-704,-0.960713279,0.095800867,-0.252567349,0.486077171,-0.830864377,-9936,-4336,-14920,-302,1169,-53,1079,-241,-264,2
575158644,1377,62,-596,-0.964567833,0.056358157,-0.248894536,0.481461801,-0.834464522,-9514,-7252,-11814,-136,1230,-21,1057,-211,-232,2
575178644,1321,-66,-533,-0.967310473,0.018156968,-0.242845808,0.478652135,-0.837582953,-10500,-9188,-9498,-80,1262,-8,1057,-213,-208,2
575198644,1290,-32,-462,-0.968354309,-0.0189634,-0.237511944,0.47601253,-0.840347964,-11050,-8460,-7076,-88,1301,1,1051,-217,-177,2
575218644,1319,-5,-264,-0.967917059,-0.05084783,-0.233029908,0.474277399,-0.842063377,-10582,-7872,-2688,-86,1305,23,1021,-207,-147,2
575238644,1258,-15,-132,-0.967320353,-0.078002527,-0.227558492,0.474454969,-0.843500689,-11524,-7860,418,-41,1254,-16,1045,-213,-138,2
575258644,1227,-49,-58,-0.96671211,-0.100749888,-0.22072261,0.475774273,-0.844589487,-11988,-8206,2426,-18,1173,-47,1019,-205,-103,2
575278644,1264,88,19,-0.965296673,-0.118595619,-0.217676971,0.475530831,-0.845494347,-11364,-5808,4322,-88,1059,-21,1023,-215,-102,2
575298644,1281,296,-21,-0.962343067,-0.13482991,-0.22074425,0.473354012,-0.845782669,-11032,-2434,4204,-130,969,48,997,-201,-41,2
575318644,1219,174,-7,-0.95970084,-0.152111107,-0.220977652,0.474849818,-0.844981218,-11908,-4474,5018,13,1077,18,989,-207,-34,2
575338644,1298,67,-232,-0.954052653,-0.186404334,-0.218558569,0.479527969,-0.842956128,-10468,-6196,2418,184,1670,-14,979,-211,-44,2
575358644,1261,50,-366,-0.945219852,-0.228377389,-0.216497153,0.486060999,-0.8397799,-10786,-6412,1594,297,1955,-20,959,-201,13,2
575378644,1253,101,-393,-0.935271634,-0.267714892,-0.213742955,0.489271311,-0.838537399,-10594,-5470,2472,122,1848,-64,963,-193,56,2
575398644,1225,185,-210,-0.927218072,-0.296021568,-0.210979584,0.491924636,-0.837676512,-10740,-3964,6476,31,1568,-141,929,-207,63,2
575418644,1258,210,7,-0.922163932,-0.313919069,-0.207170275,0.494644625,-0.837120164,-9984,-3410,10702,-45,1336,-202,911,-199,109,2
575438644,1459,61,-22,-0.91692102,-0.332569921,-0.20043762,0.498614967,-0.836255515,-6572,-5692,10848,5,1384,-195,885,-193,123,2
575458644,1548,-81,-151,-0.912153535,-0.349805389,-0.192605413,0.505416436,-0.834100204,-4990,-7796,9278,164,1270,-191,881,-187,133,2
575478644,1474,34,-227,-0.9073203,-0.365324238,-0.185813198,0.511024652,-0.832110697,-6042,-5662,8544,107,1149,-228,851,-187,145,2
575498644,1293,204,-132,-0.903449541,-0.375429321,-0.184192109,0.515620729,-0.829600463,-8808,-2760,10450,89,988,-175,839,-185,163,2
575518644,1287,187,28,-0.89967287,-0.383356767,-0.186336701,0.522497166,-0.824864024,-8728,-3104,13382,243,1076,-70,839,-183,160,2
575538644,1593,166,-128,-0.894594204,-0.394411776,-0.187396585,0.53304242,-0.817839239,-3690,-3520,11172,424,1153,-141,803,-179,175,2
575558644,1791,279,-68,-0.890524426,-0.400203008,-0.194378512,0.547048097,-0.806955108,-528,-1864,12030,740,588,-119,793,-189,195,2
575578644,1928,244,250,-0.894712413,-0.386224383,-0.203740317,0.560327422,-0.79557677,1526,-2726,16662,768,-298,-22,779,-199,204,2
575598644,2315,355,791,-0.90677288,-0.350163745,-0.216058275,0.56738764,-0.787367407,7314,-1346,24148,552,-1325,216,807,-209,180,2
575618644,2274,584,1620,-0.926366497,-0.284502167,-0.230493142,0.561343621,-0.787767012,5988,1850,-30240,-36,-2742,539,827,-225,198,2
575638648,1686,1167,460,-0.933798507,-0.238385091,-0.253404473,0.568425816,-0.775936993,-3644,10450,15198,720,-1655,672,841,-223,150,2
575658644,1577,1117,509,-0.9367358,-0.190863298,-0.283174038,0.597248353,-0.743953992,-5496,8708,14438,1917,-1346,705,857,-239,145,2
575678648,1860,-178,-511,-0.93663062,-0.157079758,-0.305011158,0.647438196,-0.692196969,-978,-12702,-2974,3000,-361,246,869,-317,124,2
575698648,2547,-383,-1161,-0.936288085,-0.134306686,-0.317783936,0.696987178,-0.636768775,10028,-16380,-14124,3029,176,-44,887,-345,94,2
575718648,2513,145,-1206,-0.941343606,-0.100404739,-0.31568114,0.725047197,-0.605899857,9344,-7860,-15986,1639,-750,-383,909,-393,74,2
575738648,2210,-138,-1172,-0.947794296,-0.053214818,-0.307857829,0.740102051,-0.591438966,4284,-12142,-16988,781,-1600,-474,955,-435,13,2
575758648,2071,-549,-1285,-0.952417143,-0.009529367,-0.297592376,0.747552402,-0.586895719,1906,-18398,-20228,284,-1599,-512,991,-425,-6,2
575778648,2014,-65,-1131,-0.953301409,0.044484746,-0.291994088,0.741584854,-0.597105805,956,-10480,-19526,-504,-2282,-319,1049,-445,-48,2
575798648,1666,224,-1068,-0.95060081,0.09577655,-0.288628412,0.730632339,-0.611691788,-4530,-5752,-20194,-763,-2236,-271,1085,-437,-63,2
575818648,1248,271,-1072,-0.949994996,0.120779008,-0.282497411,0.71739886,-0.630837984,-11072,-4826,-21806,-681,-2035,-387,1147,-429,-133,2
575838648,947,119,-1013,-0.950296946,0.139251649,-0.272547546,0.706358854,-0.647199811,-15870,-6986,-21534,-505,-1784,-477,1203,-417,-149,2
575858648,718,-56,-1029,-0.950923419,0.151335236,-0.26348067,0.690892963,-0.667076731,-19510,-9580,-22256,-726,-1658,-382,1213,-417,-194,2
575878648,553,-133,-1069,-0.950515587,0.159376249,-0.259682874,0.668647226,-0.690325389,-22120,-10718,-23194,-1044,-1618,-196,1259,-409,-229,2
575898648,413,-103,-1047,-0.949159795,0.164212449,-0.261588004,0.639540231,-0.716469202,-24314,-10256,-23028,-1340,-1599,-74,1261,-403,-261,2
575918648,294,46,-1043,-0.941978443,0.191432163,-0.268895536,0.611728374,-0.737222448,-26194,-7978,-22936,-1474,-1397,-43,1301,-385,-277,2
575938648,232,203,-1075,-0.940314155,0.182439869,-0.281711642,0.580380704,-0.758026728,-26966,-5706,-24102,-1265,-1039,-20,1283,-403,-291,2
575958648,216,236,-1120,-0.939685887,0.163650027,-0.29558831,0.55646985,-0.770812903,-27224,-5596,-24212,-836,-499,101,1313,-385,-324,2
575978648,270,285,-882,-0.935799722,0.167768907,-0.305685108,0.543798562,-0.775785286,-26354,-5302,-19602,-633,-204,231,1329,-387,-293,2
575998648,487,487,-436,-0.930443784,0.173507135,-0.319300431,0.522456,-0.785069842,-22710,-2496,-12652,-1045,-419,298,1337,-391,-313,2
576018648,798,415,186,-0.921887308,0.182631724,-0.3400791,0.495580718,-0.794385798,-17456,-4294,-2996,-1289,-680,538,1341,-407,-314,2
576038648,1596,234,960,-0.904945923,0.226481941,-0.36072431,0.472399129,-0.80009635,-4152,-7834,7966,-1117,-2189,536,1343,-425,-338,2
576058648,2491,721,1144,-0.886936771,0.281475624,-0.367828699,0.464846633,-0.801594246,10760,-258,9104,-392,-2471,114,1375,-419,-374,2
576078648,1457,1431,1222,-0.874659246,0.334963571,-0.35118698,0.46392745,-0.808942387,-5380,11614,8596,20,-2280,-782,1403,-439,-457,2
576098648,1252,467,2163,-0.871090353,0.36550945,-0.327299192,0.477437526,-0.810291201,-8526,-3066,22640,745,-961,-820,1431,-421,-519,2
576118648,905,457,1727,-0.878873184,0.35173177,-0.32090202,0.495365307,-0.801848419,-14330,-3026,16110,810,1102,-23,1431,-423,-530,2
576138648,1052,653,716,-0.887597855,0.331390485,-0.318251297,0.517034471,-0.78922943,-12388,342,782,957,1680,-37,1439,-423,-514,2
576158648,1725,338,226,-0.893399127,0.321986955,-0.310927437,0.533642016,-0.7807968,-1684,-4618,-6930,775,870,-106,1449,-423,-528,2
576178648,1714,214,542,-0.91418444,0.282951763,-0.285592814,0.537807684,-0.786983291,-2558,-5814,-582,290,2014,-1061,1453,-429,-535,2
576198648,1278,-293,225,-0.923169935,0.260147532,-0.277506548,0.524919732,-0.798239935,-9654,-14120,-4980,-732,872,-20,1461,-415,-495,2
576218648,866,-553,-1125,-0.94061229,0.199421041,-0.268443053,0.507077593,-0.812958904,-16684,-17962,-25296,-707,1583,-79,1449,-401,-483,2
576238648,1007,184,-1391,-0.947206002,0.177369755,-0.259433726,0.49764744,-0.821152912,-14940,-5464,-28060,-455,993,-539,1461,-431,-433,2
576258648,1115,-174,-1455,-0.950546436,0.160907339,-0.257557566,0.499437084,-0.820572199,-13314,-11130,-28550,55,885,-145,1467,-429,-441,2
576278648,1314,174,-1275,-0.954883896,0.136855122,-0.255065222,0.493600093,-0.824875955,-10272,-5484,-24880,-305,1108,-229,1467,-431,-425,2
576298648,1432,459,-1040,-0.959272904,0.107540412,-0.252057247,0.486220837,-0.830073331,-8530,-830,-20158,-378,1308,-248,1459,-431,-390,2
576318648,1379,413,-664,-0.962963002,0.063942907,-0.253518318,0.481535634,-0.833090978,-9468,-1572,-13186,-107,1368,-83,1481,-413,-342,2
576338648,1331,270,-426,-0.964816283,0.025158904,-0.252465134,0.482155293,-0.832862595,-10310,-3912,-7948,92,1413,-60,1477,-427,-325,2
576358648,1298,-60,-402,-0.966703955,-0.012761302,-0.244928298,0.486807069,-0.832119422,-10858,-9170,-6280,230,1463,-50,1469,-431,-288,2
576378648,1330,-262,-408,-0.967695573,-0.050060336,-0.234592828,0.489459177,-0.833144406,-10364,-12194,-5116,110,1454,-19,1475,-427,-277,2
576398648,1326,-143,-288,-0.966721071,-0.084248129,-0.227913876,0.488879731,-0.835216809,-10408,-10004,-1970,-50,1419,44,1461,-425,-228,2
576418648,1279,-120,-149,-0.965459863,-0.112303296,-0.220027731,0.489123207,-0.83696257,-11116,-9370,1296,-55,1321,-22,1459,-439,-211,2
576438648,1215,-178,-175,-0.963821685,-0.139574097,-0.211063079,0.487419343,-0.840318369,-12076,-10048,1766,-150,1260,-5,1449,-433,-179,2
576458648,1222,-96,-133,-0.960953966,-0.164163042,-0.205693423,0.481238147,-0.845085936,-11878,-8502,3306,-336,1188,93,1427,-433,-131,2
576478648,1227,69,-130,-0.956621788,-0.188089229,-0.205238203,0.471244916,-0.850875445,-11674,-5718,4166,-483,1171,167,1445,-429,-112,2
576498648,1245,222,-148,-0.950330278,-0.214837754,-0.207512155,0.461858807,-0.855341408,-11204,-3230,4778,-441,1331,141,1449,-435,-51,2
576518648,1140,264,-171,-0.94185074,-0.246889777,-0.210041094,0.458905006,-0.856325755,-12612,-2598,5466,-157,1633,38,1439,-447,-8,2
576538648,1313,309,-153,-0.930923844,-0.282963926,-0.213028943,0.461259412,-0.854453523,-9466,-1968,7006,68,1955,-11,1413,-425,41,2
576558648,1415,92,-87,-0.920446895,-0.316553511,-0.210704189,0.463996395,-0.853542693,-7424,-5520,9238,37,1962,-26,1383,-439,91,2
576578648,1514,227,-68,-0.912668906,-0.339589693,-0.208125422,0.468170665,-0.851852491,-5578,-3190,10328,52,1568,-157,1379,-445,112,2
576598648,1330,505,-31,-0.906086408,-0.355852295,-0.209299106,0.475773282,-0.847305257,-8332,1430,11482,170,1347,-326,1363,-441,172,2
576618648,1285,309,-187,-0.897932151,-0.377536599,-0.206240491,0.488368204,-0.840952585,-8784,-1736,9614,380,1531,-430,1361,-451,192,2
576638648,1292,-236,-254,-0.890694765,-0.400351906,-0.19366474,0.503781371,-0.83482023,-8372,-10430,9240,498,1548,-398,1351,-449,237,2
576658648,1475,-386,-261,-0.885026,-0.418561675,-0.179784255,0.515192606,-0.830820873,-5232,-12438,9746,325,1341,-314,1347,-451,228,2
576678648,1497,-7,-14,-0.882309858,-0.426785225,-0.17318718,0.521756258,-0.828047074,-4754,-5918,14132,112,1079,-230,1343,-451,266,2
576698648,1606,213,190,-0.880524125,-0.430313624,-0.174063021,0.530566256,-0.822425509,-2918,-2282,17612,271,1041,-172,1323,-445,273,2
576718648,1889,389,64,-0.874165967,-0.440659761,-0.179395012,0.541523758,-0.813975485,1572,376,15474,564,762,-140,1343,-473,283,2
576738648,2114,151,235,-0.876362652,-0.432564624,-0.188459248,0.55245927,-0.804595001,5104,-3722,17936,654,-72,-14,1317,-483,283,2
576758648,2490,39,525,-0.885939997,-0.408325301,-0.198363079,0.561571289,-0.796008186,10802,-5834,21788,596,-818,60,1353,-509,248,2
576778648,2570,546,1575,-0.912810575,-0.339163128,-0.208404315,0.553670166,-0.79914582,11162,1948,-29156,-182,-2990,423,1381,-547,191,2
576798648,1604,1474,449,-0.927172188,-0.285540612,-0.225836663,0.54919821,-0.797563115,-4748,16242,16578,90,-2170,624,1423,-579,88,2
576818648,1598,1573,876,-0.936541542,-0.223214898,-0.257428217,0.577096254,-0.768257935,-5166,16816,21386,1866,-2060,724,1413,-627,31,2
576838648,1800,124,-442,-0.938357525,-0.182987362,-0.282970695,0.635488322,-0.711729588,-2010,-7180,-1000,3407,-598,220,1419,-719,-143,2
576858648,2537,-419,-1295,-0.937623359,-0.159789123,-0.300311572,0.699638732,-0.641813817,9794,-16418,-15396,3885,357,-98,1413,-767,-216,2
576878648,2605,-119,-1520,-0.94361097,-0.12931158,-0.296271338,0.742073247,-0.59439438,10726,-11478,-20042,2497,-361,-646,1405,-819,-357,2
576898648,2277,4,-1166,-0.954300601,-0.082996944,-0.277625592,0.762395326,-0.577060262,5138,-8922,-15914,939,-1528,-958,1385,-829,-404,2
576918648,1975,-58,-1165,-0.962217916,-0.030134417,-0.260266896,0.765807061,-0.580147,40,-9366,-17624,-91,-2090,-786,1373,-835,-517,2
576938648,1865,45,-1040,-0.965257525,0.031870004,-0.248797862,0.760949856,-0.591124022,-1830,-7358,-17646,-509,-2569,-549,1329,-833,-592,2
576958648,1644,342,-988,-0.963452954,0.090714714,-0.241738001,0.753788028,-0.602933103,-5304,-2380,-18748,-569,-2447,-401,1285,-851,-602,2
576978648,1315,401,-967,-0.961390693,0.125243556,-0.236407683,0.746190051,-0.615440132,-10406,-1196,-20214,-377,-2233,-428,1211,-859,-647,2
576998648,954,229,-953,-0.960062869,0.151267907,-0.226672699,0.74137393,-0.624895819,-16098,-3674,-20952,-165,-1957,-543,1199,-871,-654,2
577018648,691,-130,-979,-0.960870884,0.169209136,-0.209123088,0.735122681,-0.63768816,-20258,-9068,-22036,-280,-1744,-616,1145,-879,-672,2
577038648,519,-256,-965,-0.960576266,0.185496502,-0.195707687,0.721098676,-0.657181682,-22968,-10734,-22366,-729,-1794,-438,1113,-873,-662,2
577058648,429,-204,-966,-0.950843111,0.226578301,-0.19974901,0.698451299,-0.679359572,-24330,-9772,-22852,-1330,-1839,-190,1077,-881,-648,2
577078648,316,-51,-946,-0.939453449,0.262050521,-0.210903905,0.67005817,-0.704136388,-25758,-7682,-23702,-1624,-1704,-22,1053,-901,-622,2
577098648,267,156,-1033,-0.928772271,0.287206275,-0.225568846,0.64256537,-0.724776059,-26188,-4838,-25922,-1535,-1275,104,1055,-889,-619,2
577118648,258,316,-1062,-0.926431032,0.275753941,-0.249617513,0.613422038,-0.742614212,-26028,-2778,-26920,-1263,-851,200,1055,-891,-553,2
577138648,221,378,-985,-0.921065932,0.278461989,-0.26610798,0.593893038,-0.752421649,-26662,-2572,-24874,-1059,-236,313,1043,-891,-535,2
577158648,226,329,-700,-0.915875036,0.277381634,-0.285516462,0.570743132,-0.763515607,-26404,-3968,-20284,-1233,-150,381,1047,-919,-481,2
577178648,710,351,-128,-0.907533398,0.27902637,-0.310878332,0.543785701,-0.773649814,-18394,-4410,-11180,-1411,-356,579,1017,-923,-435,2
577198648,1297,462,779,-0.883960266,0.320330732,-0.340389373,0.524940403,-0.775313007,-8288,-3594,2160,-1125,-1862,871,1027,-937,-426,2
577218648,2034,615,1267,-0.854738226,0.375530241,-0.360201765,0.519525843,-0.770739902,4498,-1722,7992,-399,-2556,637,1011,-955,-424,2
577238648,1655,1422,838,-0.833449066,0.420374183,-0.360881418,0.518396795,-0.771010982,-856,11174,-352,-85,-2011,-77,1017,-973,-459,2
577258648,1090,1041,1648,-0.826095656,0.454278223,-0.334134645,0.533442065,-0.772043832,-9642,5906,11488,903,-1115,-823,1029,-955,-459,2
577278648,677,873,2051,-0.837502375,0.437503992,-0.327356368,0.552178279,-0.761470618,-16624,3428,18486,865,1327,83,1033,-971,-505,2
577298648,1114,749,1296,-0.857730888,0.409623122,-0.309082809,0.578641977,-0.74890615,-10308,2008,7328,1344,1998,-232,1039,-973,-477,2
577318648,1042,426,516,-0.885339156,0.366361946,-0.282451918,0.596219487,-0.745032258,-12418,-2262,-3678,1023,2586,-893,1037,-955,-478,2
577338648,2472,229,102,-0.90336176,0.324845856,-0.275276991,0.606949769,-0.738959679,9926,-5248,-8998,537,2212,-178,1039,-939,-430,2
577358648,1125,-648,-229,-0.919106053,0.294054192,-0.255836711,0.606446927,-0.745964978,-11834,-19286,-13640,-92,1046,-88,1057,-951,-355,2
577378648,1191,-73,-1221,-0.936097328,0.239472149,-0.251264805,0.591777228,-0.759891398,-11364,-9466,-28184,-557,1327,-235,1045,-961,-369,2
577398648,1020,-286,-1121,-0.949782396,0.197706079,-0.23454784,0.588577714,-0.767436571,-14568,-12466,-25196,-2,935,-414,1037,-933,-308,2
577418648,1320,-169,-1508,-0.954460688,0.176019793,-0.231138025,0.589413457,-0.766960183,-10176,-10212,-29880,25,1107,-211,1061,-919,-286,2
577438648,1302,118,-1255,-0.959942847,0.15123209,-0.225423964,0.587751836,-0.769901011,-10632,-5434,-25032,-116,1185,-334,1053,-927,-266,2
577458648,1398,114,-905,-0.967187237,0.103494339,-0.222020474,0.581479797,-0.77639764,-9232,-5488,-18484,-213,1333,-124,1049,-917,-235,2
577478648,1361,96,-625,-0.971162383,0.057952624,-0.220251115,0.574459378,-0.781908888,-10002,-5746,-12346,-276,1426,-20,1047,-927,-201,2
577498648,1311,53,-539,-0.972871065,0.013618967,-0.219146811,0.567207437,-0.787404539,-10874,-6434,-9444,-303,1458,60,1049,-929,-154,2
577518648,1284,4,-514,-0.97288873,-0.030090638,-0.216355526,0.560142379,-0.792997943,-11316,-7162,-7566,-306,1491,46,1011,-929,-123,2
577538648,1319,-40,-356,-0.971407406,-0.068353727,-0.212643113,0.553281195,-0.798307784,-10708,-7788,-3634,-329,1450,72,1015,-909,-112,2
577558648,1275,-46,-171,-0.96978814,-0.100132527,-0.206515682,0.548123822,-0.803318877,-11342,-7688,518,-310,1381,-13,1003,-905,-64,2
577578648,1161,-130,-101,-0.968274368,-0.128276745,-0.197412097,0.542712878,-0.809279211,-13096,-8800,2628,-357,1308,-43,993,-927,-7,2
577598652,1180,87,-44,-0.964743767,-0.154768044,-0.194819073,0.532539126,-0.816451872,-12702,-5072,4492,-555,1309,41,963,-893,31,2
577618652,1319,261,-8,-0.959467486,-0.180744085,-0.198164842,0.523534328,-0.821473796,-10314,-2276,5974,-459,1382,132,965,-901,49,2
577638652,1263,181,-8,-0.953088021,-0.209926391,-0.199604706,0.519205453,-0.823827345,-10980,-3656,6960,-253,1601,91,953,-901,94,2
577658652,1375,173,-131,-0.944800349,-0.243981587,-0.199779242,0.515499059,-0.82612649,-8918,-3808,6058,-218,1761,62,931,-891,147,2
577678652,1275,210,-114,-0.937217807,-0.271996457,-0.198805077,0.512871353,-0.827978181,-10262,-3146,7278,-199,1561,-33,905,-893,170,2
577698652,1350,318,48,-0.931562167,-0.29240704,-0.196045473,0.514507489,-0.827629136,-8844,-1254,10666,-93,1437,-238,885,-903,218,2
577718652,1407,333,26,-0.924700828,-0.315014903,-0.192839483,0.52390209,-0.822419111,-7702,-906,11064,249,1620,-378,881,-897,202,2
577738652,1413,333,-182,-0.916497149,-0.338399772,-0.192430388,0.538202263,-0.813415904,-7366,-902,8392,545,1576,-362,863,-889,232,2
577758652,1265,78,-211,-0.90836098,-0.362466551,-0.186185353,0.552124508,-0.805393651,-9440,-4938,8702,489,1588,-398,851,-893,253,2
577778652,1296,-252,-252,-0.901169753,-0.385127144,-0.174730675,0.564199274,-0.799569743,-8664,-10072,8760,408,1483,-305,841,-909,220,2
577798652,1397,6,-242,-0.894722121,-0.401628496,-0.170070474,0.57188759,-0.795050532,-6848,-5608,9508,253,1251,-202,827,-895,258,2
577818652,1354,319,-96,-0.889737673,-0.411347302,-0.173351048,0.580986999,-0.787898066,-7360,-484,12256,351,1102,-204,801,-897,251,2
577838652,1506,227,-27,-0.885612546,-0.419104533,-0.175283908,0.593464041,-0.778024944,-4756,-2094,13674,511,1127,-240,789,-897,295,2
577858652,1744,198,-98,-0.879858952,-0.429587323,-0.178874273,0.60595559,-0.767615709,-932,-2662,12514,626,770,-239,785,-915,287,2
577878652,1852,143,12,-0.880813789,-0.424884202,-0.185606437,0.617742717,-0.756651709,766,-3760,14118,676,88,-124,769,-925,270,2
577898652,2184,66,405,-0.889358355,-0.40206443,-0.195642399,0.627863601,-0.745687339,5792,-5316,19668,685,-726,33,775,-935,268,2
577918652,2624,206,1240,-0.910593867,-0.34616483,-0.206190251,0.626648515,-0.744070537,12118,-3420,31222,141,-2321,310,795,-933,232,2
577938652,1962,1125,689,-0.927276902,-0.289352328,-0.220193952,0.621425781,-0.744524511,974,10838,20548,-9,-2336,513,829,-921,222,2
577958652,1573,1764,546,-0.936514875,-0.233447732,-0.247530531,0.634288592,-0.725177513,-5554,20188,16426,1145,-1977,739,821,-941,187,2
577978652,1701,657,195,-0.940639896,-0.181640659,-0.275925492,0.671713071,-0.680608669,-3650,1572,9124,2511,-1374,527,839,-959,107,2
577998652,2338,-240,-1004,-0.938319515,-0.158646096,-0.29858237,0.726801228,-0.611800719,6596,-13498,-10788,3649,278,173,827,-979,14,2
578018652,2653,-253,-1518,-0.940269174,-0.134582032,-0.304856584,0.772654278,-0.549917789,11588,-13896,-19822,3098,112,-327,845,-1005,-84,2
578038652,2408,44,-1275,-0.948917426,-0.093870316,-0.292853863,0.797051305,-0.52064977,7412,-8762,-17300,1439,-1126,-756,849,-989,-183,2
578058652,1990,-242,-1104,-0.956517305,-0.044831045,-0.279344233,0.805415051,-0.514853993,474,-12912,-16172,308,-1824,-659,895,-977,-237,2
578078652,1960,-20,-1049,-0.960216882,0.013678556,-0.269896951,0.80338501,-0.522619385,-140,-9066,-17198,-349,-2398,-459,909,-939,-264,2
578098652,1721,268,-1046,-0.959714431,0.066659091,-0.264195653,0.796941146,-0.535078563,-3942,-4276,-18894,-588,-2227,-336,939,-915,-278,2
578118652,1331,350,-1049,-0.956559796,0.114607256,-0.259498093,0.791113665,-0.545704165,-10076,-2816,-20516,-503,-1991,-317,969,-867,-313,2
578138652,1053,240,-963,-0.956184175,0.136049353,-0.251978945,0.7865893,-0.556804994,-14380,-4328,-20594,-216,-1762,-425,979,-845,-328,2
578158652,822,-43,-991,-0.957403198,0.15125601,-0.237744897,0.782511793,-0.568248369,-18068,-8552,-21610,-194,-1577,-510,999,-801,-364,2
578178652,545,-257,-957,-0.958919121,0.163507333,-0.222120527,0.77208684,-0.587762721,-22506,-11612,-21508,-619,-1608,-472,1013,-753,-390,2
578198652,428,-212,-1020,-0.958591729,0.172882391,-0.216099252,0.753017157,-0.613816261,-24368,-10636,-22864,-1079,-1638,-250,995,-741,-405,2
578218652,369,-1,-1045,-0.95663441,0.178746929,-0.220199924,0.727061979,-0.642874504,-25278,-7208,-23488,-1368,-1596,-135,1021,-701,-400,2
578238652,312,46,-974,-0.94934771,0.210260456,-0.223676063,0.705903165,-0.664282992,-26146,-6538,-22452,-1263,-1457,-184,1011,-673,-397,2
578258652,414,110,-955,-0.942920307,0.232969804,-0.22877258,0.68645265,-0.682608157,-24292,-5674,-22904,-1134,-1073,-127,1029,-667,-398,2
578278652,375,218,-899,-0.938146595,0.244418992,-0.236833886,0.666955985,-0.699051149,-24752,-4200,-22388,-1114,-600,-16,1029,-651,-380,2
578298652,266,278,-623,-0.935328927,0.247005491,-0.245494909,0.648858439,-0.712991135,-26402,-3518,-18058,-1014,-203,26,1043,-659,-375,2
578318652,528,391,-19,-0.931011435,0.252849661,-0.256141386,0.633888278,-0.722664393,-22068,-2046,-8586,-832,-308,152,1053,-651,-399,2
578338652,1019,490,527,-0.917569101,0.28114084,-0.275825083,0.62742731,-0.7214802,-13852,-962,-632,-416,-998,473,1045,-645,-399,2
578358652,1854,675,833,-0.901298286,0.320270251,-0.287801762,0.63164025,-0.713489685,114,1496,2844,143,-1530,485,1055,-661,-418,2
578378652,2088,912,902,-0.881955653,0.370790264,-0.287590655,0.640196454,-0.705879666,4482,5292,2298,405,-1992,74,1047,-669,-472,2
578398652,1699,680,1207,-0.871252069,0.408594873,-0.267690104,0.650217025,-0.70406552,-1384,2210,5932,614,-1383,-683,1035,-669,-494,2
578418652,1201,42,1967,-0.868763041,0.420658162,-0.256488261,0.649561722,-0.708582969,-9260,-7640,17692,32,-380,-556,1053,-631,-543,2
578438652,1127,434,1305,-0.879189679,0.398521846,-0.256015557,0.646149153,-0.711864257,-10784,-1354,7824,-196,1136,-181,1047,-631,-541,2
578458652,1190,562,927,-0.888351781,0.372281726,-0.264008937,0.640669072,-0.714239318,-10194,538,2850,-391,1548,-20,1041,-619,-525,2
578478652,223,677,223,-0.920367688,0.295192212,-0.249601295,0.629962772,-0.728312613,-26652,2724,-6060,-494,3482,-875,1007,-589,-456,2
578498652,3019,502,694,-0.925337953,0.274977362,-0.25425847,0.640131829,-0.717930013,17972,-212,2100,477,1183,271,1009,-581,-439,2
578518652,1470,-844,-414,-0.93007339,0.262815049,-0.249426783,0.645847769,-0.714434702,-6962,-21594,-15232,280,774,-198,975,-559,-421,2
578538652,799,-65,-1527,-0.940105917,0.23716717,-0.236348981,0.641113305,-0.722891498,-18030,-8714,-32198,-254,1211,-691,955,-559,-403,2
578558652,677,194,-1470,-0.952287326,0.19571781,-0.225257487,0.640960632,-0.727077084,-20186,-4150,-30848,237,801,-566,973,-529,-405,2
578578652,1266,-163,-1570,-0.956173267,0.175524674,-0.223864385,0.64443529,-0.723621763,-11094,-9884,-30858,164,1075,-101,955,-531,-382,2
578598652,1425,-3,-1362,-0.961539969,0.144949578,-0.222311234,0.639752235,-0.728248613,-8716,-7274,-26534,-283,1390,-188,927,-519,-357,2
578618652,1435,-23,-826,-0.968733102,0.094736865,-0.21876601,0.630864065,-0.737826839,-8684,-7656,-16884,-403,1453,-49,945,-507,-337,2
578638652,1416,244,-550,-0.971750924,0.046849644,-0.220107008,0.619697953,-0.746733302,-9172,-3294,-10720,-513,1548,-12,947,-517,-303,2
578658652,1277,252,-512,-0.972289423,0.001134317,-0.221945357,0.612607507,-0.751923505,-11432,-3210,-8580,-291,1548,19,917,-503,-293,2
578678652,1246,15,-487,-0.971947059,-0.041262168,-0.218504127,0.612179523,-0.753053488,-11898,-7052,-6750,13,1530,14,913,-489,-270,2
578698652,1340,-59,-292,-0.970803086,-0.076110456,-0.212544428,0.614184801,-0.752642516,-10346,-8102,-2300,77,1468,-23,887,-515,-256,2
578718652,1256,-127,-172,-0.96979492,-0.105219934,-0.203729854,0.617028477,-0.752635855,-11634,-8950,668,65,1351,-85,895,-513,-212,2
578738652,1176,-144,-229,-0.96752825,-0.134932982,-0.196062046,0.614654023,-0.756494405,-12842,-8988,704,-182,1291,5,873,-515,-233,2
578758652,1217,34,-161,-0.963840755,-0.161339248,-0.193991592,0.608678563,-0.761897022,-12080,-5934,2742,-344,1236,87,873,-515,-179,2
578778652,1228,160,-34,-0.959090307,-0.187001713,-0.194033093,0.60572277,-0.764221676,-11744,-3822,5746,-205,1403,32,839,-509,-191,2
578798652,1299,198,58,-0.951632626,-0.219753057,-0.195740086,0.605364745,-0.764026465,-10348,-3244,8400,-74,1867,47,849,-495,-160,2
578818652,1534,161,-321,-0.939449342,-0.265097726,-0.197707011,0.607178686,-0.762106586,-6226,-3954,3638,105,2207,84,831,-509,-146,2
578838652,1290,284,-273,-0.929184157,-0.297868187,-0.199241612,0.613972072,-0.756351585,-9792,-1932,5500,304,1770,-137,805,-527,-134,2
578858652,1213,410,84,-0.921748765,-0.319869377,-0.199329933,0.62315397,-0.748824984,-10710,208,12192,286,1661,-370,787,-515,-100,2
578878652,1503,421,246,-0.916577512,-0.335702557,-0.19653117,0.637861954,-0.737034971,-5852,428,15396,502,1570,-526,779,-511,-125,2
578898652,1513,23,110,-0.912888203,-0.348942155,-0.19043372,0.654054362,-0.724444846,-5534,-5988,13582,632,1399,-398,755,-493,-94,2
578918652,1411,-196,5,-0.908116972,-0.36471756,-0.183262216,0.667432571,-0.714073615,-6998,-9402,12360,554,1416,-231,751,-499,-100,2
578938652,1322,-52,-121,-0.900972769,-0.383738512,-0.17893991,0.677499216,-0.705574788,-8228,-6866,10914,428,1466,-193,723,-521,-93,2
578958652,1336,242,-109,-0.894810643,-0.396055946,-0.182754245,0.688223954,-0.69417692,-7822,-2080,11534,543,1233,-175,697,-511,-129,2
578978652,1396,407,55,-0.891780781,-0.398562957,-0.191812606,0.702144479,-0.677655105,-6738,372,14338,771,981,-192,697,-521,-129,2
578998652,1738,505,76,-0.887821564,-0.402502114,-0.20194159,0.715934306,-0.66024293,-1290,1508,14414,956,556,-80,653,-499,-139,2
579018652,1997,271,387,-0.892865272,-0.385004092,-0.214052472,0.723574484,-0.648138048,2692,-2624,18814,691,-467,133,659,-505,-152,2
579038652,2205,82,1239,-0.901289416,-0.357025968,-0.227738567,0.727960518,-0.638706984,5738,-6088,31536,556,-958,274,621,-507,-183,2
579058652,2111,516,1034,-0.908385433,-0.325539209,-0.247147813,0.740802869,-0.61674244,3996,236,27230,1199,-929,293,599,-503,-195,2
579078652,1860,1410,588,-0.912289163,-0.30001967,-0.265781495,0.752532789,-0.594977492,-144,13952,19250,1150,-648,307,555,-469,-255,2
579098652,2112,850,-22,-0.918347761,-0.258542547,-0.289034557,0.778847709,-0.549206534,3668,4252,8162,2279,-981,194,501,-457,-316,2
579118652,2278,1,-1119,-0.925293706,-0.207579562,-0.309198291,0.814756978,-0.483289495,6074,-9972,-11034,3118,-1073,-45,473,-451,-335,2
579138652,2503,-607,-1438,-0.934807997,-0.151130849,-0.31420726,0.842516903,-0.430102149,9374,-19852,-18006,2398,-1494,-351,429,-417,-378,2
579158652,2427,-15,-1184,-0.943071565,-0.095288927,-0.311996754,0.850693259,-0.415508408,7904,-10306,-15796,629,-2033,-264,417,-399,-389,2
579178652,2114,-176,-1099,-0.948783385,-0.044423291,-0.305992636,0.85491279,-0.410852233,2710,-12692,-16104,193,-1944,-345,403,-373,-354,2
579198652,2153,-237,-1087,-0.953094278,0.006299106,-0.295665881,0.855982479,-0.415798822,3192,-13346,-17574,-200,-2054,-499,407,-351,-319,2
579218652,1944,127,-1118,-0.953060184,0.058117174,-0.290361565,0.851000605,-0.429212356,-156,-7356,-19764,-604,-2214,-315,427,-335,-274,2
579238652,1701,225,-1168,-0.950572522,0.106368301,-0.285055223,0.844341097,-0.44528109,-3962,-5620,-22150,-716,-2096,-354,459,-301,-248,2
579258652,1315,300,-1161,-0.946660493,0.152619069,-0.277259936,0.839185182,-0.459530676,-10008,-4174,-23556,-591,-1979,-479,481,-305,-230,2
579278652,932,324,-1092,-0.945943786,0.171328079,-0.26964572,0.833629468,-0.474789474,-15962,-3470,-23886,-320,-1793,-554,531,-285,-215,2
579298652,656,208,-1065,-0.945280936,0.18642026,-0.261509086,0.82851271,-0.487706082,-20334,-5082,-24008,-220,-1685,-543,555,-275,-216,2
579318652,411,72,-1078,-0.944680192,0.197110757,-0.255197663,0.822355323,-0.500657156,-24204,-7104,-24618,-255,-1572,-418,611,-241,-219,2
579338652,283,-59,-1129,-0.944598425,0.202680735,-0.250660749,0.812968131,-0.517490344,-26220,-9128,-25624,-484,-1417,-303,665,-231,-210,2
579358652,182,-63,-1173,-0.945404075,0.20122236,-0.248293916,0.800152164,-0.537687398,-27866,-9098,-26282,-685,-1167,-285,653,-221,-189,2
579378652,138,-52,-1221,-0.947020527,0.191996669,-0.249224479,0.784224916,-0.560024694,-28632,-8932,-26748,-849,-874,-201,701,-199,-206,2
579398652,111,70,-1237,-0.948253429,0.17055976,-0.26005949,0.762739094,-0.584297378,-29146,-7234,-26312,-1091,-429,55,723,-191,-201,2
579418652,90,163,-935,-0.943312941,0.174245279,-0.275866165,0.737743104,-0.608783904,-29486,-6320,-20658,-1534,-420,301,719,-179,-197,2
579438652,241,396,-522,-0.937797245,0.174837893,-0.294836853,0.706527714,-0.636720175,-26894,-3190,-14066,-1828,-404,373,729,-181,-154,2
579458652,955,489,297,-0.925050316,0.194637662,-0.323296522,0.674484106,-0.65793913,-15116,-2472,-1532,-1747,-1160,600,733,-175,-163,2
579478652,2051,494,1462,-0.902968353,0.25333616,-0.346603532,0.655603779,-0.665938126,3180,-3244,15128,-1007,-2790,656,763,-177,-175,2
579498656,2269,749,1551,-0.877212372,0.316643111,-0.362316784,0.638799636,-0.674549783,7508,352,14480,-923,-3066,305,761,-167,-190,2
579518656,2160,1686,1663,-0.870586324,0.356693529,-0.338879319,0.630883865,-0.692861388,6008,16074,14936,-385,-1837,-1236,797,-157,-215,2
579538656,947,321,2541,-0.863128159,0.377222937,-0.335722384,0.633038575,-0.692372756,-13138,-5660,28298,90,-752,-173,819,-157,-230,2
579558656,557,835,1446,-0.875010477,0.33575674,-0.349201494,0.641301818,-0.678341761,-19790,2140,12152,348,2240,661,821,-145,-215,2
579578656,1911,1107,230,-0.881904077,0.311312966,-0.354773531,0.646543946,-0.670826919,1668,6328,-6516,235,1391,255,817,-143,-194,2
579598656,1443,1392,906,-0.901899036,0.274273183,-0.332477989,0.6522505,-0.675944002,-6484,11572,5520,271,1953,-936,811,-139,-238,2
579618656,1232,898,324,-0.90655596,0.262596248,-0.328622893,0.66333084,-0.666665839,-10084,4050,-3456,675,874,-391,819,-119,-201,2
579638656,895,-878,-1380,-0.921405409,0.240699774,-0.301023658,0.686967853,-0.65491044,-15894,-23770,-29952,1241,1560,-899,817,-105,-217,2
579658656,1032,119,-1537,-0.93014675,0.233043414,-0.27802261,0.7071965,-0.642980967,-13980,-7092,-32220,1084,839,-766,833,-117,-204,2
579678656,1055,-684,-1722,-0.936150381,0.222900448,-0.265097053,0.728075469,-0.624656785,-13808,-19532,30688,1179,948,-331,853,-95,-201,2
579698656,1604,-631,-1378,-0.941222679,0.201302454,-0.264192605,0.73136507,-0.621271707,-5186,-18652,-28640,164,1145,-78,835,-103,-231,2
579718656,1557,-73,-1100,-0.946640234,0.1664901,-0.268821117,0.718417544,-0.634295441,-6120,-9874,-23046,-800,1438,-38,829,-93,-187,2
579738656,1408,404,-700,-0.952870533,0.112947445,-0.27544277,0.701001907,-0.651718663,-8642,-2430,-15416,-872,1522,33,845,-83,-187,2
579758656,1343,451,-465,-0.955450686,0.067630958,-0.280931611,0.690339075,-0.660652298,-9820,-1828,-10012,-480,1478,39,835,-91,-142,2
579778656,1310,258,-439,-0.957382824,0.025803279,-0.280489351,0.68821975,-0.662778774,-10396,-5022,-8188,-46,1500,-2,813,-89,-140,2
579798656,1327,-75,-459,-0.959229823,-0.013841901,-0.273756274,0.691372808,-0.661891166,-10136,-10354,-7186,184,1504,23,799,-87,-103,2
579818656,1367,-198,-389,-0.9602517,-0.050908277,-0.264451538,0.695185598,-0.661303975,-9518,-12102,-4768,164,1497,5,783,-87,-88,2
579838656,1296,-195,-329,-0.960227255,-0.085828099,-0.254416328,0.697917793,-0.662165601,-10656,-11738,-2608,74,1451,-24,785,-95,-89,2
579858656,1198,-145,-337,-0.957767887,-0.121516082,-0.248190419,0.696410963,-0.6658998,-12160,-10710,-1556,-119,1444,109,757,-89,-68,2
579878656,1108,-121,-300,-0.953754658,-0.156952316,-0.24282024,0.692099653,-0.6721306,-13470,-10140,238,-272,1454,154,745,-87,-61,2
579898656,1082,24,-184,-0.947550379,-0.192137035,-0.241246254,0.688352652,-0.676481249,-13694,-7658,3382,-231,1630,165,739,-77,-35,2
579918656,1193,216,-127,-0.937942546,-0.229950929,-0.24532278,0.685453553,-0.678016746,-11616,-4570,5644,-139,1917,195,695,-75,-23,2
579938656,1381,326,8,-0.926660188,-0.264659438,-0.253190158,0.682319812,-0.678526867,-8206,-3006,9076,-125,1980,289,721,-71,20,2
579958656,1611,236,44,-0.917626463,-0.291956412,-0.255903597,0.687336735,-0.67252955,-4182,-4614,10582,240,1831,72,669,-81,25,2
579978656,1690,-36,130,-0.914327517,-0.307270266,-0.248933371,0.692556087,-0.669560792,-2746,-8888,12504,80,1337,-98,671,-91,36,2
579998656,1461,204,405,-0.915748708,-0.309142577,-0.241160399,0.691483334,-0.673474448,-6436,-4626,17128,-400,838,-203,649,-77,53,2
580018656,1328,571,319,-0.913273182,-0.318095539,-0.238868672,0.690960523,-0.674872924,-8558,1566,16008,-327,1123,-325,633,-83,72,2
580038656,1275,426,43,-0.905145591,-0.339160876,-0.240259001,0.697687801,-0.667330779,-9168,-890,12158,230,1633,-247,639,-73,65,2
580058656,1366,33,-214,-0.895802807,-0.364499368,-0.237810991,0.709712846,-0.655493753,-7378,-7392,8724,598,1728,-168,587,-89,79,2
580078656,1370,87,-129,-0.889969697,-0.379854882,-0.235424856,0.720957097,-0.644037712,-7096,-6408,10650,527,1363,-210,599,-75,80,2
580098656,1317,280,56,-0.887710165,-0.384600498,-0.236078079,0.732029414,-0.631201172,-7852,-3188,13888,497,1051,-282,581,-111,81,2
580118656,1548,263,68,-0.886900242,-0.384844409,-0.238829777,0.744929735,-0.614999825,-4116,-3590,14090,692,900,-217,575,-91,89,2
580138656,1916,127,73,-0.885244763,-0.38328803,-0.247605724,0.756399019,-0.59747659,1644,-6000,13732,886,339,-93,587,-109,89,2
580158656,2407,53,529,-0.893172633,-0.356495801,-0.259691489,0.76493131,-0.581547651,9236,-7568,20158,825,-816,91,589,-139,62,2
580178656,2701,-56,1595,-0.916392475,-0.282259542,-0.271506251,0.760293866,-0.582560884,13136,-9698,-30696,-9,-3156,419,603,-131,50,2
580198656,2148,818,809,-0.927679574,-0.228042115,-0.28512664,0.75275149,-0.586123426,3940,3864,20454,-174,-2260,532,619,-149,20,2
580218656,1600,1567,846,-0.933038503,-0.17027078,-0.309121749,0.755322546,-0.57125769,-5006,15092,19154,706,-2124,756,655,-145,-5,2
580238656,1844,371,102,-0.932955611,-0.128090592,-0.330836774,0.780072849,-0.524977664,-1100,-4716,5866,2196,-916,446,661,-179,-51,2
580258656,2677,-400,-1214,-0.931465957,-0.104790464,-0.344168441,0.817613237,-0.455765851,12258,-17472,-15934,3206,298,45,637,-197,-77,2
580278656,2908,-297,-1708,-0.935536869,-0.077919366,-0.340198014,0.846437171,-0.403265389,15840,-15696,-24742,2372,-141,-488,665,-225,-127,2
580298656,2547,33,-1365,-0.943568826,-0.031941751,-0.324449454,0.859022316,-0.388577761,9812,-9924,-20772,683,-1572,-768,659,-223,-146,2
580318656,2132,-132,-1057,-0.948342506,0.022545954,-0.310622098,0.860295657,-0.396077076,3006,-12136,-17620,-291,-2257,-642,699,-231,-140,2
580338656,2046,109,-1046,-0.947063036,0.083442425,-0.304482326,0.854816731,-0.412082024,1662,-8090,-19434,-699,-2656,-369,719,-205,-139,2
580358656,1720,342,-1073,-0.94085912,0.135846477,-0.305540743,0.845778326,-0.429541307,-3344,-4396,-21590,-828,-2342,-129,727,-195,-189,2
580378656,1283,397,-1083,-0.932916947,0.183836691,-0.305408923,0.839731753,-0.441359654,-10068,-3508,-23334,-561,-2086,-176,731,-171,-187,2
580398656,980,308,-1043,-0.930247843,0.203253016,-0.302396561,0.83480134,-0.453823099,-14644,-4784,-24140,-209,-1816,-317,753,-165,-203,2
580418656,652,99,-1030,-0.92911653,0.218062382,-0.295003634,0.82992523,-0.466852669,-19812,-7962,-24492,-190,-1710,-411,765,-161,-200,2
580438656,362,-72,-976,-0.919306159,0.25824271,-0.292446548,0.824866787,-0.475802677,-24364,-10608,-24054,-427,-1709,-286,787,-159,-194,2
580458656,276,-152,-995,-0.906994201,0.295909783,-0.295934034,0.816240061,-0.488530889,-25322,-11994,-25602,-668,-1713,-123,773,-137,-204,2
580478656,236,-152,-983,-0.89416302,0.327815752,-0.302052438,0.803635532,-0.505532758,-25544,-12186,-26458,-922,-1565,-124,817,-121,-230,2
580498656,213,-49,-1099,-0.893569842,0.323801486,-0.308445944,0.785608187,-0.52954963,-25558,-10726,-29070,-925,-1187,-155,825,-105,-210,2
580518656,290,90,-1099,-0.895048443,0.312446183,-0.316388401,0.769851778,-0.548160696,-24400,-8662,-28722,-679,-804,-110,851,-85,-193,2
580538656,232,106,-1126,-0.898977557,0.291181264,-0.325840342,0.754712962,-0.563759357,-25488,-8680,-28464,-581,-326,-25,839,-75,-190,2
580558656,173,204,-837,-0.894299174,0.292430026,-0.337953388,0.740070503,-0.575943727,-26548,-7602,-22968,-904,-212,156,843,-81,-205,2
580578656,573,312,-170,-0.885014163,0.297522498,-0.359102461,0.716152189,-0.594053555,-19848,-6530,-12460,-1422,-606,367,853,-63,-187,2
580598656,1238,297,688,-0.86432996,0.331183424,-0.381654111,0.694058273,-0.607189665,-8534,-7620,328,-1401,-1756,627,829,-67,-191,2
580618656,2182,642,1446,-0.834431637,0.382259874,-0.402506933,0.682164535,-0.608597348,7532,-2580,10634,-691,-2573,561,867,-49,-226,2
580638656,1765,1471,961,-0.815433173,0.42248426,-0.401489865,0.680050401,-0.611593146,1502,10724,1544,-145,-1869,-184,873,-47,-251,2
580658656,1182,757,1588,-0.810202219,0.45401153,-0.374400789,0.697137982,-0.607750269,-7652,124,10540,997,-930,-781,869,-47,-259,2
580678656,914,441,2052,-0.822571272,0.444172172,-0.357299941,0.713264661,-0.598417196,-12342,-4406,18282,929,1068,-351,891,-15,-246,2
580698656,902,517,1112,-0.834913321,0.426196441,-0.349797743,0.726421542,-0.58675231,-13116,-2938,4164,611,1792,-131,887,-27,-245,2
580718656,511,463,1340,-0.855816085,0.388825521,-0.341715104,0.723855995,-0.594176674,-20184,-3524,9318,-382,2667,-695,883,27,-210,2
580738656,2230,141,-748,-0.876708932,0.342703616,-0.337294523,0.732224103,-0.586232917,6922,-8598,-23178,466,2506,-70,861,43,-170,2
580758656,2029,-217,930,-0.877281586,0.345296716,-0.332763299,0.73542391,-0.584546158,3712,-14176,3566,161,113,-205,859,53,-154,2
580778656,1161,220,-1015,-0.896007039,0.292118262,-0.334372791,0.718817659,-0.605158929,-10506,-7258,-26594,-743,1232,-244,859,75,-119,2
580798656,881,345,-1293,-0.913605865,0.245968156,-0.322349178,0.713323178,-0.617441425,-15642,-4764,-29606,-20,1055,-723,873,61,-97,2
580818656,1143,-183,-1681,-0.919379281,0.234099342,-0.312842769,0.725608006,-0.60648546,-11860,-13020,30986,693,945,-288,859,95,-90,2
580838656,1403,-332,-1423,-0.925000699,0.214638304,-0.309808672,0.728105268,-0.604955168,-7870,-15302,-29798,107,1059,-177,853,107,-64,2
580858656,1493,-132,-1108,-0.930980086,0.183423696,-0.311906536,0.720716961,-0.612870723,-6628,-12170,-23732,-477,1372,-90,815,89,-49,2
580878656,1369,314,-777,-0.938972635,0.128871126,-0.315992678,0.705877347,-0.628914909,-8766,-5208,-17230,-709,1527,31,819,119,5,2
580898656,1404,279,-673,-0.9435225,0.079340603,-0.318261368,0.695740497,-0.638859976,-8396,-5884,-13840,-439,1524,84,805,131,31,2
580918656,1312,263,-591,-0.945977211,0.034331679,-0.318540659,0.690520305,-0.644290956,-9968,-6156,-10998,-179,1483,50,807,137,51,2
580938656,1376,93,-409,-0.947197301,-0.003273461,-0.315652467,0.689918308,-0.6458208,-8966,-8908,-6700,7,1428,92,787,135,37,2
580958656,1314,-43,-289,-0.94850051,-0.035717681,-0.308272629,0.692616861,-0.645817826,-9976,-10942,-3620,107,1364,20,755,133,68,2
580978656,1240,-77,-254,-0.94940418,-0.065778986,-0.299508755,0.696596598,-0.645372564,-11184,-11230,-2040,142,1316,-20,757,143,76,2
580998656,1220,-63,-109,-0.949832287,-0.088729836,-0.291471381,0.701321548,-0.643774616,-11512,-10744,1162,151,1186,-12,735,149,94,2
581018656,1148,83,-47,-0.948293915,-0.111056225,-0.288381985,0.707734596,-0.638074495,-12644,-8198,2958,302,1298,21,723,121,104,2
581038656,1161,34,154,-0.945747703,-0.134060401,-0.286845997,0.714807255,-0.630997056,-12316,-8962,7120,309,1576,111,711,145,113,2
581058656,1243,6,154,-0.941212649,-0.16328668,-0.285922496,0.719343066,-0.626053825,-10846,-9402,8102,182,1836,176,687,135,151,2
581078656,1578,-151,-250,-0.93492939,-0.205288375,-0.278618806,0.726401392,-0.621107707,-5296,-11778,2784,311,2121,-2,667,135,133,2
581098656,1431,-17,-129,-0.9314036,-0.232218789,-0.268332834,0.727254339,-0.624425175,-7524,-9222,5680,-176,1455,-131,631,129,188,2
581118656,1249,408,56,-0.928310754,-0.249830682,-0.262904517,0.724235212,-0.630189555,-10382,-1926,9366,-445,1175,-281,599,143,206,2
581138656,1236,560,127,-0.923327291,-0.2685594,-0.261431905,0.72556497,-0.629115213,-10436,658,11180,-147,1397,-338,603,163,197,2
581158656,1393,262,-6,-0.917339109,-0.290653527,-0.258325388,0.732109576,-0.622700006,-7680,-4240,9710,216,1563,-213,569,147,205,2
581178656,1413,-128,-148,-0.912157303,-0.313793022,-0.248867169,0.739142166,-0.618157569,-7140,-10434,8104,218,1497,-149,547,155,232,2
581198656,1381,-61,-135,-0.907877637,-0.333477208,-0.237820383,0.743868556,-0.616592892,-7516,-8956,8988,18,1337,-226,539,157,241,2
581218656,1291,337,-164,-0.901574977,-0.351149142,-0.235953313,0.749114584,-0.610901155,-8816,-2248,9110,162,1299,-268,503,179,255,2
581238656,1300,340,-147,-0.894483868,-0.365827002,-0.240702342,0.758565957,-0.597445579,-8424,-2352,9884,580,1311,-153,483,179,282,2
581258656,1749,104,-255,-0.885938322,-0.381343277,-0.248111699,0.767153626,-0.583448144,-1054,-6386,8424,694,1062,-62,461,171,285,2
581278656,2121,69,-64,-0.884925244,-0.378182167,-0.257007184,0.772813942,-0.572334263,4936,-7226,11366,570,181,52,451,163,311,2
581298656,2460,71,404,-0.892118914,-0.353105256,-0.268274732,0.77611912,-0.562828436,10120,-7552,18044,503,-826,192,473,145,298,2
581318656,2681,345,1762,-0.913843159,-0.27879522,-0.284089721,0.771215772,-0.562276447,12900,-3678,-28138,88,-3135,556,503,131,308,2
581338656,1576,909,1060,-0.923808983,-0.227381641,-0.298792828,0.758132558,-0.572753586,-5086,4890,24450,-504,-2254,671,565,135,310,2
581358656,1455,1604,568,-0.926716564,-0.177424062,-0.32444349,0.765057703,-0.549916783,-7114,15208,14936,1083,-1652,739,615,107,271,2
581378656,1831,502,185,-0.926340044,-0.127849529,-0.350529464,0.791494668,-0.495480606,-1098,-3234,7196,2545,-1088,557,659,69,246,2
581398660,2535,-316,-894,-0.924744217,-0.096920896,-0.36597017,0.828168543,-0.420123534,10200,-16802,-11062,3420,114,117,687,-41,270,2
581418660,2736,-280,-1484,-0.927801292,-0.071832735,-0.364032471,0.851129007,-0.373513255,13350,-16156,-21364,2062,-128,-358,711,-73,243,2
581438660,2466,-109,-1468,-0.933954895,-0.034938866,-0.35320422,0.862656116,-0.356630975,8840,-13082,-22332,757,-1149,-571,745,-139,209,2
581458660,2191,-165,-1150,-0.939204015,0.009774886,-0.339828567,0.866609566,-0.358742572,4256,-13570,-18698,-61,-1779,-624,769,-147,177,2
581478660,2116,137,-1116,-0.940479852,0.062891118,-0.330225922,0.864206579,-0.372333588,3004,-8444,-19886,-566,-2314,-491,811,-159,152,2
581498660,1912,403,-1155,-0.9370092,0.118119566,-0.325398449,0.860742226,-0.384345206,-142,-4036,-22324,-510,-2389,-327,863,-181,100,2
581518660,1591,411,-1141,-0.929895451,0.177918999,-0.318655771,0.859280404,-0.392668415,-5052,-3702,-24054,-318,-2530,-405,881,-195,27,2
581538660,1101,383,-1014,-0.925453873,0.213300433,-0.310809788,0.857161386,-0.404594842,-12568,-3834,-23956,-105,-2441,-517,935,-197,-36,2
581558660,788,206,-994,-0.92169103,0.239846623,-0.302061696,0.854297549,-0.416373337,-17406,-6428,-24584,-91,-2157,-509,945,-201,-53,2
581578660,567,-53,-970,-0.919837737,0.258678045,-0.291398381,0.850008829,-0.431693079,-20802,-10374,-24864,-242,-1929,-451,963,-215,-114,2
581598660,521,-162,-1018,-0.917490369,0.272517156,-0.285778292,0.839411205,-0.454936672,-21430,-12004,-26078,-708,-1853,-298,961,-217,-159,2
581618660,403,-52,-984,-0.902991604,0.309986245,-0.293770189,0.824490437,-0.475799257,-23176,-10330,-25876,-1130,-1840,-85,977,-223,-197,2
581638660,273,4,-937,-0.888019303,0.340194998,-0.306796587,0.806316013,-0.498467062,-24756,-9840,-26122,-1312,-1627,21,971,-231,-220,2
581658660,261,105,-989,-0.874062013,0.362492008,-0.32224516,0.788233135,-0.517794104,-24486,-8702,-27690,-1245,-1291,114,981,-211,-218,2
581678660,241,204,-1068,-0.872120993,0.347962817,-0.344670816,0.766246675,-0.537485767,-24440,-7604,-29374,-991,-787,210,977,-217,-215,2
581698660,194,240,-1132,-0.873572212,0.321103236,-0.367833174,0.744765516,-0.553012172,-25286,-7718,-29518,-842,-175,282,999,-221,-233,2
581718660,226,207,-850,-0.869711168,0.313260607,-0.384648722,0.72725023,-0.565386357,-24892,-8986,-23860,-1049,96,280,983,-237,-217,2
581738660,677,327,-227,-0.861355193,0.308583252,-0.409023539,0.70116565,-0.582671942,-17406,-7804,-13736,-1505,-282,444,969,-249,-233,2
581758660,1692,367,1069,-0.833266113,0.344038358,-0.441839521,0.673918929,-0.593424747,-272,-8160,5862,-1492,-2243,789,973,-253,-234,2
581778660,2516,648,1775,-0.788235081,0.414300648,-0.467555887,0.660454392,-0.59165293,14362,-4436,14870,-753,-3741,735,999,-279,-253,2
581798660,2320,1921,880,-0.774624277,0.441776639,-0.464974578,0.653975833,-0.600470239,11722,16036,-386,-369,-1458,-386,997,-281,-311,2
581818660,694,1179,2109,-0.773085374,0.464470636,-0.442003225,0.667073349,-0.600978384,-14238,4844,18528,735,-593,-718,983,-277,-351,2
581838660,414,767,2010,-0.79073051,0.444026873,-0.430022259,0.686801184,-0.586259732,-19306,-1396,17622,1059,1807,-18,975,-285,-343,2
581858660,639,836,1551,-0.820983384,0.411927387,-0.400929513,0.708199512,-0.579163328,-16710,576,11338,1213,2393,-765,977,-295,-327,2
581878660,56,544,-1113,-0.865384409,0.315281954,-0.393925088,0.71280252,-0.578336248,-27412,-3448,-28922,819,3967,-683,943,-269,-318,2
581898660,3426,-741,-288,-0.883668181,0.304434983,-0.356353749,0.751350969,-0.550623575,25816,-23304,-14552,2211,1607,-911,913,-299,-268,2
581918660,2116,-731,1006,-0.883731278,0.303754907,-0.356846966,0.753797883,-0.547047654,4896,-23144,6140,130,251,-8,893,-297,-286,2
581938660,1039,583,-1341,-0.895597251,0.253541222,-0.366842431,0.728224296,-0.574927457,-12748,-2434,-29746,-1610,1813,-147,919,-313,-268,2
581958660,918,872,-1064,-0.90891159,0.203042848,-0.365782078,0.714514814,-0.593380058,-15048,2550,-24412,-498,1226,-689,887,-303,-228,2
581978660,997,297,-1447,-0.915000267,0.191526912,-0.354785778,0.730237082,-0.57922525,-14052,-6638,-29412,877,1035,-340,879,-301,-226,2
581998660,1363,-238,-1304,-0.919861022,0.174264578,-0.350492606,0.740058109,-0.569028595,-8344,-15060,-26568,563,1146,-144,859,-325,-225,2
582018660,1554,-371,-1034,-0.924516123,0.14501187,-0.351350787,0.738555759,-0.570480265,-5440,-17214,-21288,-122,1410,-63,859,-301,-208,2
582038660,1398,-52,-618,-0.933309678,0.094537906,-0.345041125,0.729066826,-0.586735159,-8060,-12214,-13456,-584,1519,-22,843,-305,-204,2
582058660,1360,315,-451,-0.936692704,0.05005401,-0.344671578,0.719996678,-0.59787661,-8892,-6136,-9194,-474,1467,-1,819,-281,-191,2
582078660,1268,224,-374,-0.938866012,0.012692874,-0.341352505,0.719254367,-0.600324506,-10432,-7536,-6676,-10,1408,-21,801,-289,-147,2
582098660,1313,-42,-318,-0.941024374,-0.020261908,-0.333658424,0.723445464,-0.598919408,-9730,-11732,-4626,204,1390,32,795,-305,-157,2
582118660,1271,-43,-185,-0.94202855,-0.050015781,-0.326573836,0.726864064,-0.598202074,-10436,-11530,-1406,118,1371,54,779,-315,-109,2
582138660,1248,-169,-176,-0.943176672,-0.079297381,-0.316283468,0.72989054,-0.599640923,-10816,-13304,-280,32,1352,26,761,-309,-118,2
582158660,1295,-105,-158,-0.942850014,-0.107814306,-0.308043635,0.729585631,-0.604104856,-10066,-11972,988,-161,1312,60,747,-311,-85,2
582178660,1254,-41,-117,-0.941038925,-0.135354565,-0.302004544,0.72743402,-0.609521771,-10676,-10714,2604,-251,1316,105,733,-309,-91,2
582198660,1286,-55,-117,-0.937984969,-0.165235378,-0.29589635,0.72502554,-0.615162151,-10058,-10750,3612,-270,1455,118,721,-317,-62,2
582218660,1253,49,-116,-0.932526426,-0.197540093,-0.29271984,0.722886993,-0.619038451,-10428,-8910,4728,-211,1632,133,701,-313,-51,2
582238660,1200,200,-20,-0.926373389,-0.225958534,-0.291081004,0.721626695,-0.6211024,-11084,-6320,7298,-184,1617,34,695,-327,-19,2
582258660,1232,273,153,-0.921580538,-0.247003013,-0.289013148,0.722113024,-0.62155919,-10384,-5022,10894,-161,1500,-70,643,-327,-12,2
582278660,1318,197,252,-0.917529415,-0.267211802,-0.283509747,0.724578975,-0.621189186,-8830,-6118,13216,-130,1578,-151,667,-325,-26,2
582298660,1370,434,131,-0.911225334,-0.288443998,-0.282875422,0.728729263,-0.616687968,-7846,-2164,11912,62,1606,-194,625,-319,32,2
582318660,1447,469,-49,-0.904228088,-0.309647584,-0.282504159,0.736311343,-0.607747251,-6412,-1594,9640,307,1567,-265,617,-339,47,2
582338660,1364,129,-132,-0.899607081,-0.329099277,-0.274611393,0.74653871,-0.598732451,-7534,-6988,8900,366,1449,-342,581,-345,13,2
582358660,1445,32,-168,-0.895105883,-0.34763317,-0.265475026,0.756594941,-0.58990805,-6074,-8310,8924,358,1403,-324,571,-347,44,2
582378660,1352,274,-92,-0.890226647,-0.360171393,-0.264722868,0.767368034,-0.57610257,-7422,-4242,10612,549,1280,-279,551,-373,26,2
582398660,1563,136,-23,-0.887529954,-0.367312672,-0.264241559,0.781931363,-0.556724936,-3902,-6536,11994,837,1180,-258,531,-357,12,2
582418660,1958,189,-138,-0.884172214,-0.371382991,-0.269466339,0.793415967,-0.53761727,2346,-5702,9974,881,624,-234,517,-357,-32,2
582438660,2310,44,287,-0.890901323,-0.34916416,-0.277964466,0.800826576,-0.522618057,7762,-8288,16038,724,-628,-21,491,-389,-26,2
582458660,2828,18,1083,-0.906964578,-0.295288987,-0.289323171,0.802052081,-0.514779523,15500,-9070,27040,400,-2128,253,489,-407,-62,2
582478660,2102,559,1783,-0.924327798,-0.227209873,-0.297145346,0.788126431,-0.53179992,3290,-666,-29494,-799,-3092,470,495,-391,-62,2
582498660,1483,1529,794,-0.928747471,-0.170343684,-0.322432505,0.786712099,-0.519887568,-6738,14070,18328,546,-2132,844,461,-399,-69,2
582518660,1637,914,663,-0.927660177,-0.122189732,-0.349029525,0.800064661,-0.48265031,-4232,3408,14642,1692,-1333,735,441,-411,-78,2
582538660,2314,-181,-378,-0.92443613,-0.088750111,-0.369002254,0.831442364,-0.411044629,6678,-14732,-3080,3204,-73,355,407,-439,-126,2
582558660,2868,-616,-1309,-0.924482789,-0.067761907,-0.373912297,0.857160334,-0.350141587,15560,-21836,-18686,2661,298,-120,339,-479,-127,2
582578660,2833,-282,-1588,-0.929987775,-0.038620668,-0.363775404,0.868322801,-0.3322585,14846,-16172,-24134,785,-795,-545,333,-487,-152,2
582598660,2318,-152,-1320,-0.935894329,0.000870701,-0.349603876,0.873466613,-0.332704598,6402,-13662,-21132,10,-1537,-660,341,-499,-133,2
582618660,2212,-19,-967,-0.937880494,0.065527512,-0.337636363,0.872229002,-0.346880095,4612,-11176,-17574,-572,-2825,-586,357,-503,-113,2
582638660,1977,404,-995,-0.932774894,0.131273737,-0.332934864,0.867435988,-0.362641575,1018,-4262,-20178,-675,-2911,-338,417,-489,-75,2
582658660,1682,516,-1052,-0.921940874,0.196528038,-0.331632331,0.862764124,-0.374700898,-3342,-2428,-23236,-539,-2868,-224,441,-507,-50,2
582678660,1226,347,-1016,-0.914667217,0.234383713,-0.328501976,0.858666474,-0.388197754,-10188,-5010,-24662,-232,-2603,-293,491,-489,-50,2
582698660,830,233,-1003,-0.909352224,0.25849962,-0.324973455,0.855083913,-0.398437718,-16308,-6702,-25338,-73,-2066,-295,537,-499,-61,2
582718660,601,86,-1003,-0.905956414,0.274608908,-0.320799545,0.849520892,-0.41268602,-19814,-8966,-25918,-231,-1842,-316,561,-501,-70,2
582738660,479,17,-1022,-0.902349046,0.285152918,-0.321931872,0.838747105,-0.433223534,-21620,-10122,-26582,-597,-1748,-188,605,-493,-66,2
582758660,315,-40,-1052,-0.898598427,0.289932232,-0.328164206,0.823507359,-0.45668434,-24120,-11228,-27218,-839,-1583,-52,627,-495,-89,2
582778660,190,-101,-1074,-0.896589074,0.287799351,-0.3356607,0.806696063,-0.480379919,-26048,-12450,-27494,-894,-1287,-2,633,-471,-82,2
582798660,146,-52,-1111,-0.895882968,0.277856773,-0.346555092,0.787773829,-0.503988044,-26748,-11950,-27770,-944,-975,60,669,-475,-73,2
582818660,141,97,-1208,-0.896549106,0.258366136,-0.360638884,0.769708872,-0.522411318,-26902,-9890,-28706,-744,-496,124,677,-457,-41,2
582838660,201,153,-1174,-0.89788123,0.23402169,-0.374808949,0.753957061,-0.536153274,-26012,-9412,-27376,-518,-213,186,689,-455,-34,2
582858660,462,227,-907,-0.890188966,0.235732919,-0.393364663,0.735190812,-0.549803214,-21790,-8930,-22228,-1091,-361,424,681,-479,-37,2
582878660,650,269,-256,-0.877548223,0.239243982,-0.42167138,0.700364342,-0.575582717,-18384,-9118,-11914,-1972,-869,595,673,-465,10,2
582898660,1581,303,1534,-0.850153508,0.28684039,-0.451249145,0.669885164,-0.59194036,-2616,-9468,15186,-1631,-2855,690,689,-469,22,2
582918660,2194,275,1777,-0.822492993,0.338425247,-0.469234254,0.656263709,-0.594991982,8112,-10438,17372,-722,-2701,446,733,-479,11,2
582938660,2387,1386,1096,-0.817940138,0.356047552,-0.463443878,0.653246908,-0.602134863,11380,7526,5872,-213,-811,-414,771,-473,4,2
582958660,890,1467,2017,-0.822532438,0.374242775,-0.437052372,0.675116852,-0.59522219,-12724,9598,20014,1138,-118,-740,763,-471,-2,2
582978660,231,1125,2520,-0.842722654,0.344792655,-0.420364829,0.693251193,-0.585002253,-23940,4618,29036,968,2089,-394,761,-483,-69,2
582998660,153,1049,853,-0.864437662,0.267692771,-0.433175573,0.687301023,-0.583814131,-26340,3512,5406,-355,4304,-390,751,-481,-25,2
583018660,4129,-46,30,-0.879385324,0.242660446,-0.41511505,0.711916022,-0.565580875,-28316,-13962,-7450,1331,1967,-451,691,-469,31,2
583038660,1529,-282,-87,-0.896098558,0.225221215,-0.384969713,0.720517695,-0.573714474,-4644,-17288,-9002,216,745,-632,677,-463,4,2
583058660,656,159,-1412,-0.912948564,0.161414944,-0.37673031,0.715392437,-0.585806981,-19256,-9506,-28786,-34,1765,-438,673,-459,29,2
583078660,752,-57,-1132,-0.927056372,0.117547935,-0.355747605,0.717771649,-0.594695235,-18172,-12500,-22806,224,1054,-672,667,-461,52,2
583098660,1549,-381,-1586,-0.931289796,0.09225088,-0.350711212,0.720975522,-0.592758838,-5752,-17360,-28384,123,1332,-268,645,-453,73,2
583118660,1616,-156,-1182,-0.934185013,0.063004447,-0.349045731,0.716190621,-0.599369198,-4764,-13704,-20970,-355,1310,-176,643,-463,101,2
583138660,1453,226,-800,-0.937628541,0.012090348,-0.345425231,0.703912806,-0.616397418,-7414,-7632,-13674,-669,1485,-62,623,-455,96,2
583158660,1432,537,-664,-0.93673295,-0.035898272,-0.345735358,0.69298307,-0.628389079,-7810,-2510,-9794,-541,1577,-71,601,-445,121,2
583178660,1317,392,-498,-0.934529705,-0.075845519,-0.344446307,0.68960215,-0.632447103,-9566,-4852,-5734,-136,1507,-53,553,-439,167,2
583198660,1325,183,-391,-0.932349669,-0.10910948,-0.340098152,0.69245735,-0.630978601,-9320,-8196,-2840,160,1452,-28,545,-435,135,2
583218660,1367,-91,-255,-0.931673113,-0.13667527,-0.330860998,0.699368697,-0.627869019,-8550,-12462,350,274,1392,-26,539,-421,148,2
583238660,1385,-206,-211,-0.931698177,-0.162313856,-0.31784996,0.707391387,-0.625180284,-8236,-13956,1944,259,1367,-113,505,-437,161,2
583258660,1333,-218,-285,-0.930530261,-0.188665643,-0.305529689,0.712676048,-0.624998549,-9040,-13766,1588,125,1305,-66,481,-437,169,2
583278660,1261,-86,-215,-0.928482585,-0.210100986,-0.296992037,0.713817343,-0.627598586,-10140,-11300,3474,-79,1113,19,455,-421,150,2
583298660,1121,-17,-102,-0.926352698,-0.226373736,-0.291123716,0.713475166,-0.630564669,-12306,-9962,5912,-149,994,78,463,-433,180,2
583318664,1091,0,-108,-0.922133371,-0.247022457,-0.287234651,0.713980451,-0.631659724,-12648,-9550,6508,-59,1235,116,439,-433,189,2
583338664,1154,43,-131,-0.912981652,-0.281103466,-0.284422306,0.715061532,-0.631553443,-11350,-8738,7288,-12,1880,102,409,-429,196,2
583358664,1279,173,-261,-0.898462534,-0.325101266,-0.283114058,0.715125144,-0.632003317,-8910,-6534,6628,-48,2287,61,359,-449,192,2
583378664,1361,225,-244,-0.884704208,-0.362481479,-0.280747247,0.717704194,-0.63023779,-7124,-5594,8172,33,2119,-62,337,-435,198,2
583398664,1463,206,-88,-0.877046105,-0.385630853,-0.272996769,0.724335691,-0.625805186,-5176,-5654,11540,82,1681,-318,297,-445,199,2
583418664,1456,556,224,-0.872776108,-0.396598281,-0.270952392,0.730874836,-0.619162798,-5126,250,17058,58,1362,-392,269,-435,178,2
583438664,1469,525,292,-0.870201409,-0.403037811,-0.26946317,0.738853667,-0.610238567,-4810,-216,18394,156,1241,-393,261,-449,208,2
583458664,1518,-82,246,-0.869045081,-0.409890477,-0.262393661,0.750100566,-0.599438164,-3892,-10066,17848,384,1280,-241,245,-445,183,2
583478664,1429,-249,123,-0.866670491,-0.421316911,-0.251383071,0.760075884,-0.591416346,-5234,-12496,16188,289,1368,-224,223,-443,174,2
583498664,1389,179,-1,-0.861625111,-0.433554599,-0.247503525,0.76873659,-0.581736691,-5798,-5254,14582,297,1374,-298,217,-469,180,2
583518664,1380,464,76,-0.8579464,-0.436278457,-0.25550212,0.779683266,-0.563598827,-5846,-762,15948,690,1113,-232,195,-473,176,2
583538664,1837,363,37,-0.851710431,-0.442747749,-0.265403088,0.790232338,-0.544317678,1476,-2788,15108,940,757,-131,177,-481,150,2
583558664,2156,299,231,-0.855695711,-0.427677708,-0.277423434,0.798726346,-0.525814924,6448,-4192,17720,916,-254,-19,163,-495,123,2
583578664,2511,122,1117,-0.874355419,-0.378931124,-0.291374112,0.801607059,-0.51438302,11504,-7468,30320,621,-1913,237,171,-517,141,2
583598664,2261,271,1694,-0.894155931,-0.3198118,-0.303365099,0.794548269,-0.518783266,6840,-5464,-27902,-135,-2582,484,209,-509,139,2
583618664,1738,1312,891,-0.905184992,-0.263676563,-0.326066884,0.793986689,-0.506787064,-1882,10488,22936,632,-2138,670,227,-511,147,2
583638664,1657,1035,495,-0.908834059,-0.213724801,-0.354085304,0.804235954,-0.47236854,-3296,5188,14960,1626,-1461,654,247,-507,136,2
583658664,2500,116,-410,-0.907656856,-0.171985919,-0.381527862,0.82920558,-0.405286247,10210,-10364,-866,3018,-491,401,267,-559,98,2
583678664,2891,-354,-1222,-0.908661269,-0.140968474,-0.393017487,0.854773812,-0.336987661,16436,-18230,-14880,2963,23,-134,263,-595,83,2
583698664,2877,26,-1400,-0.915398525,-0.106936181,-0.387986015,0.868112314,-0.307273451,16024,-11986,-18882,1248,-817,-468,289,-625,18,2
583718664,2386,-95,-1155,-0.923824256,-0.063820753,-0.376625143,0.876539594,-0.296021733,7888,-13578,-16372,465,-1535,-594,341,-637,2,2
583738664,2292,-33,-1151,-0.931725323,-0.010450847,-0.361277302,0.881400824,-0.299000271,6114,-12120,-18044,-109,-2198,-702,437,-631,-27,2
583758664,2033,286,-1123,-0.934297927,0.043587735,-0.351778235,0.882596094,-0.305739954,1882,-6724,-19366,-268,-2272,-471,513,-623,-8,2
583778664,1757,317,-1098,-0.933059337,0.10072295,-0.343008697,0.883053379,-0.313263107,-2498,-5960,-20838,-290,-2410,-458,559,-627,-38,2
583798664,1346,195,-1017,-0.933314523,0.137542946,-0.330005357,0.883182729,-0.327546464,-8922,-7612,-21440,-222,-2423,-506,653,-609,-88,2
583818664,1007,189,-994,-0.932576597,0.168800591,-0.316732032,0.882659309,-0.340827556,-14316,-7238,-22180,-154,-2263,-590,669,-619,-120,2
583838664,723,-64,-954,-0.93232967,0.197965086,-0.299132934,0.880988166,-0.359171726,-18778,-10850,-22566,-315,-2323,-658,731,-605,-165,2
583858664,619,-186,-1015,-0.931153301,0.223284062,-0.283637823,0.87495539,-0.384207446,-20364,-12368,-24390,-645,-2281,-593,763,-595,-193,2
583878664,472,-118,-1085,-0.928298745,0.242440369,-0.276922721,0.863350715,-0.413567845,-22618,-10980,-26178,-932,-2148,-436,797,-575,-248,2
583898664,311,-49,-1079,-0.924363373,0.255818447,-0.278088002,0.847993338,-0.44309991,-25066,-9824,-26542,-1046,-1955,-267,827,-559,-277,2
583918664,239,20,-1059,-0.912943743,0.28798601,-0.284501725,0.834098291,-0.464319648,-26120,-8884,-26362,-1098,-1576,-122,839,-547,-321,2
583938664,145,174,-1107,-0.909528667,0.282115152,-0.301836883,0.813792665,-0.489304282,-27266,-6778,-27850,-1077,-1140,65,863,-563,-307,2
583958664,74,283,-1191,-0.906781184,0.26657786,-0.324508781,0.79131577,-0.511668945,-28362,-5662,-28672,-1068,-707,200,863,-573,-330,2
583978664,136,267,-893,-0.897016935,0.276623335,-0.344334255,0.772515601,-0.528150598,-27230,-6792,-23344,-1200,-717,411,851,-585,-346,2
583998664,470,25,-364,-0.884033069,0.295545127,-0.363470641,0.754218504,-0.542560462,-21464,-11254,-15498,-1129,-1129,383,843,-617,-334,2
584018664,1029,143,550,-0.870211516,0.326245477,-0.371542105,0.745532971,-0.549590774,-12026,-9838,-1730,-705,-1326,347,845,-619,-340,2
584038664,1312,728,1044,-0.850261437,0.353898307,-0.394198015,0.730978517,-0.554803122,-6888,-944,5120,-858,-1500,584,825,-637,-359,2
584058664,1741,1362,835,-0.838754224,0.36347208,-0.411644642,0.719145136,-0.558785642,362,8680,1456,-698,-606,408,819,-641,-364,2
584078664,1780,858,1258,-0.837047687,0.371051667,-0.407992248,0.725136334,-0.553409491,1048,728,7970,324,-38,-91,821,-685,-417,2
584098664,1322,866,2038,-0.84966952,0.358645193,-0.390802133,0.738417413,-0.546985991,-6700,1370,20862,734,1107,-515,809,-685,-391,2
584118664,-342,789,-268,-0.891181435,0.258714123,-0.374526696,0.73326052,-0.563813442,30766,598,-12688,-448,4629,-930,823,-667,-380,2
584138664,978,-493,-141,-0.920612304,0.199144941,-0.333968028,0.75836595,-0.554094467,-14276,-19286,-8992,1188,2974,-604,829,-671,-384,2
584158664,3481,270,542,-0.929471839,0.171551928,-0.323623495,0.773222905,-0.53919741,25222,-6104,3062,879,1684,-332,825,-679,-408,2
584178664,2298,-109,890,-0.931483176,0.153783493,-0.326736896,0.763401961,-0.551178234,6238,-12262,9204,-672,713,-64,837,-703,-411,2
584198664,915,642,-597,-0.938252134,0.087604327,-0.332367313,0.736674622,-0.584137771,-16150,-184,-12938,-1511,1810,-371,809,-701,-394,2
584218664,820,1028,-642,-0.941320727,0.044016762,-0.331415418,0.729770981,-0.592781711,-17870,6232,-12160,-262,1358,-726,831,-689,-360,2
584238664,922,74,-1295,-0.946593577,0.007781219,-0.31828367,0.746834183,-0.578627694,-16220,-9192,-21762,1179,1080,-416,845,-711,-356,2
584258664,1530,-371,-1263,-0.945958771,-0.00753394,-0.318747181,0.760763235,-0.558890082,-6540,-16210,-19938,935,1152,-62,837,-709,-392,2
584278664,1586,-642,-1006,-0.945123959,-0.034554215,-0.319285518,0.762865622,-0.555834273,-5602,-20560,-14956,119,1366,-64,835,-695,-426,2
584298664,1381,-157,-733,-0.945580427,-0.082713241,-0.308277444,0.754724491,-0.572885262,-8814,-12802,-9404,-630,1506,-43,835,-709,-377,2
584318664,1369,233,-575,-0.941378605,-0.125521312,-0.305860436,0.744831447,-0.586644128,-8948,-6272,-5332,-614,1473,56,837,-715,-343,2
584338664,1253,172,-472,-0.935946401,-0.162676502,-0.304350311,0.739354309,-0.594090778,-10612,-7232,-2400,-312,1425,112,837,-723,-334,2
584358664,1309,20,-323,-0.930755582,-0.19388843,-0.301203305,0.735908734,-0.599656539,-9490,-9670,1142,-240,1380,181,821,-711,-304,2
584378664,1254,-42,-216,-0.926075224,-0.223138394,-0.294674222,0.733342405,-0.605834255,-10184,-10494,3904,-279,1407,107,823,-725,-278,2
584398664,1243,-157,-178,-0.922634376,-0.249799866,-0.282888234,0.732771123,-0.61176673,-10214,-12032,5432,-265,1369,-18,815,-723,-269,2
584418664,1209,-22,-71,-0.918284893,-0.273197778,-0.27469392,0.729881018,-0.618741201,-10616,-9508,8014,-380,1341,31,809,-729,-257,2
584438664,1162,170,5,-0.911798989,-0.295377005,-0.273152123,0.724206017,-0.626063202,-11168,-6232,10048,-463,1388,140,809,-735,-206,2
584458664,1167,235,19,-0.903465943,-0.318322826,-0.274587608,0.719447965,-0.63076623,-10816,-5184,11056,-352,1511,169,779,-747,-182,2
584478664,1235,228,80,-0.895195376,-0.341210501,-0.273914517,0.716413971,-0.634488763,-9418,-5282,12844,-322,1613,87,797,-749,-165,2
584498664,1321,192,97,-0.887383798,-0.365054781,-0.268106151,0.714076547,-0.639513899,-7760,-5704,13922,-408,1676,-55,787,-729,-157,2
584518664,1421,298,52,-0.880326668,-0.385404283,-0.262095772,0.712987261,-0.642978827,-5942,-3754,13854,-363,1530,-164,785,-739,-132,2
584538664,1534,293,-61,-0.873658918,-0.404405385,-0.255150563,0.718394563,-0.639645042,-3924,-3630,12618,-6,1512,-340,779,-749,-111,2
584558664,1448,319,-205,-0.867171623,-0.42117776,-0.249563351,0.726639302,-0.632409954,-5120,-3014,10794,200,1380,-412,783,-755,-116,2
584578664,1274,256,-235,-0.859674018,-0.438547984,-0.245120067,0.734961312,-0.624448672,-7660,-3898,10864,252,1400,-370,773,-755,-129,2
584598664,1246,-3,-252,-0.85183741,-0.457253415,-0.237656692,0.744408233,-0.616026778,-7804,-7982,11188,332,1472,-304,775,-773,-129,2
584618664,1466,2,-221,-0.845307235,-0.472225729,-0.231175888,0.752858933,-0.608132634,-4036,-7682,12224,287,1369,-259,781,-771,-123,2
584638664,1517,133,-2,-0.841775315,-0.478682045,-0.230792459,0.761515738,-0.597508365,-3050,-5476,16066,391,1184,-185,755,-781,-146,2
584658664,1815,75,7,-0.832282975,-0.492278064,-0.236640842,0.768011525,-0.586988831,1764,-6482,16250,520,969,-129,783,-789,-167,2
584678664,2075,255,52,-0.829750221,-0.492789898,-0.244475286,0.773138912,-0.577073725,6008,-3850,16982,515,342,-37,793,-797,-155,2
584698664,2120,334,467,-0.837945294,-0.473107595,-0.255699957,0.777699996,-0.566154767,6456,-2944,22982,598,-608,78,769,-819,-193,2
584718664,2461,347,1098,-0.855849199,-0.432175763,-0.269476526,0.780717436,-0.5557718,11314,-3176,31756,597,-1601,217,783,-813,-254,2
584738664,2085,824,2115,-0.8836523,-0.365740672,-0.279604263,0.767636329,-0.569181159,4354,4128,-19638,-541,-3095,604,775,-819,-284,2
584758664,1294,2080,394,-0.892016785,-0.314261723,-0.316068397,0.773025544,-0.54344167,-8556,23086,16644,1411,-1709,949,755,-805,-365,2
584778664,1536,954,430,-0.895698085,-0.260997802,-0.35545618,0.796281047,-0.48458878,-4822,3842,15498,2859,-1189,661,727,-823,-406,2
584798664,2429,-162,-973,-0.892615702,-0.225685181,-0.389172821,0.832465217,-0.391876558,9532,-15060,-8062,4204,285,171,697,-795,-562,2
584818664,2697,-292,-1539,-0.895141615,-0.194647867,-0.401446343,0.857007472,-0.322233306,13776,-17494,-18188,2994,60,-293,691,-789,-628,2
584838664,2505,-29,-1443,-0.906140024,-0.154511774,-0.393898327,0.871455271,-0.29088654,10372,-13046,-18006,1278,-1083,-655,679,-737,-707,2
584858664,2175,-146,-1190,-0.917124879,-0.111193094,-0.382065745,0.879852997,-0.279646533,4730,-14560,-15376,430,-1571,-634,673,-687,-754,2
584878664,2037,49,-1124,-0.926684309,-0.061584586,-0.369122872,0.882920336,-0.28539707,2198,-11048,-15936,-268,-2110,-587,667,-665,-776,2
584898664,1922,288,-1067,-0.932071917,-0.009544868,-0.36035085,0.884031923,-0.292277405,182,-6956,-16732,-294,-2210,-428,633,-633,-788,2
584918664,1737,351,-1119,-0.933866376,0.044405213,-0.352749559,0.884122215,-0.300065532,-2842,-5716,-19328,-329,-2290,-395,629,-621,-788,2
584938664,1239,352,-1042,-0.936099188,0.079027725,-0.34140151,0.884592243,-0.312629491,-10794,-5372,-19916,-176,-2298,-524,605,-587,-757,2
584958664,866,226,-1040,-0.937959382,0.105641497,-0.328076055,0.886261683,-0.320884474,-16804,-6966,-20870,51,-2007,-599,595,-549,-787,2
584978664,693,17,-1016,-0.940967765,0.128189569,-0.309851724,0.889198486,-0.329339379,-19610,-9836,-21286,93,-1893,-668,597,-523,-784,2
584998664,548,-177,-1010,-0.943672337,0.147741459,-0.291143067,0.888133779,-0.347145148,-21968,-12464,-21852,-325,-1922,-609,587,-513,-758,2
585018664,400,-205,-1054,-0.944965877,0.160930557,-0.278940398,0.87922933,-0.377353178,-24370,-12512,-23018,-930,-1862,-476,567,-495,-770,2
585038664,263,-155,-1106,-0.944974456,0.166358612,-0.275149402,0.862945044,-0.414874153,-26574,-11522,-24048,-1356,-1670,-310,581,-493,-739,2
585058664,154,-74,-1168,-0.944517307,0.160974761,-0.279846087,0.840965252,-0.454569712,-28326,-10284,-24882,-1566,-1284,-115,573,-477,-738,2
585078664,87,109,-1238,-0.943709865,0.141750991,-0.293148235,0.815967022,-0.490504714,-29426,-7628,-25384,-1513,-693,81,537,-473,-701,2
585098664,33,220,-1313,-0.942676194,0.106413951,-0.311592952,0.790568121,-0.520309219,-30312,-6360,-25424,-1313,45,269,569,-493,-680,2
585118664,107,285,-1139,-0.939785544,0.058474109,-0.333149784,0.762771104,-0.548311308,-29096,-5958,-21064,-1290,577,410,535,-483,-669,2
585138664,592,120,-462,-0.934126124,0.050546139,-0.351315923,0.731547695,-0.579414524,-21156,-9362,-9034,-1841,-149,557,519,-487,-627,2
585158664,1297,328,821,-0.921298966,0.104494255,-0.375312731,0.693271637,-0.611841027,-9494,-6902,10194,-2309,-2510,885,501,-481,-604,2
585178664,2537,701,2322,-0.893569592,0.195644742,-0.408675746,0.655091587,-0.634110326,11180,-1862,30856,-1950,-4713,982,453,-509,-585,2
585198664,3150,1909,929,-0.880220901,0.229256829,-0.421613646,0.627275605,-0.654167334,21522,17120,7380,-1493,-2037,112,435,-505,-564,2
585218664,211,2535,2948,-0.88785884,0.238239428,-0.397390453,0.630776761,-0.664115001,-25726,27878,-26172,47,-217,-1079,439,-507,-583,2
585238664,226,1243,2127,-0.896088837,0.209729737,-0.394428716,0.64362075,-0.653340081,-25762,7290,27170,658,1750,-36,445,-471,-573,2
585258668,621,1178,1199,-0.912384968,0.171287101,-0.372683433,0.682079801,-0.625409024,-20012,6898,13618,2013,2726,-563,447,-447,-586,2
585278668,401,1171,-1029,-0.926572561,0.083136616,-0.366802911,0.709298939,-0.598275214,-24176,7508,-19762,1937,3906,-782,475,-395,-570,2
585298668,2838,-1083,-866,-0.941166211,0.065833708,-0.327506127,0.771672715,-0.538990207,14474,-27900,-15920,3534,2217,-1410,485,-377,-559,2
585318668,2308,-1714,1192,-0.941776786,0.084089881,-0.321341207,0.79034001,-0.515074009,6058,27760,16322,1213,-205,-239,515,-321,-593,2
585338668,1124,7,-1780,-0.942084126,0.03023163,-0.329974709,0.756623216,-0.558538998,-12924,-10518,-29434,-2283,1709,140,531,-319,-559,2
585358668,725,983,-907,-0.944094613,-0.027036654,-0.324162784,0.728458509,-0.598145472,-19506,5706,-14172,-1775,1284,-880,539,-311,-534,2
585378668,1095,637,-1521,-0.942405038,-0.051756749,-0.325180957,0.727338605,-0.598398456,-13374,-280,-22628,-72,1217,-36,563,-297,-503,2
585398668,1293,322,-1285,-0.940529013,-0.075279761,-0.325846223,0.729636675,-0.595296253,-10138,-5338,-18090,126,1224,-67,563,-285,-503,2
585418668,1439,-38,-1151,-0.937675249,-0.105119014,-0.325410191,0.729711961,-0.595377453,-7712,-11084,-14960,-35,1447,-100,569,-257,-450,2
585438668,1366,-105,-704,-0.935074389,-0.149044335,-0.314814423,0.726937138,-0.604277767,-8730,-12162,-6694,-257,1553,-46,565,-275,-438,2
585458668,1368,43,-571,-0.930086292,-0.189052233,-0.306972011,0.722954713,-0.612639422,-8560,-9468,-3134,-317,1532,-20,573,-261,-453,2
585478668,1294,-47,-497,-0.924984019,-0.224224463,-0.297528087,0.722522132,-0.617417613,-9554,-10666,-740,-140,1466,-44,565,-255,-407,2
585498668,1266,-16,-308,-0.919911275,-0.252335224,-0.289515041,0.722382413,-0.620923596,-9810,-9894,3356,-143,1369,-13,571,-249,-400,2
585518668,1257,-8,-204,-0.914758809,-0.275304155,-0.284221269,0.722527191,-0.623003112,-9756,-9586,5866,-98,1289,75,559,-247,-366,2
585538668,1244,-135,-249,-0.910071803,-0.298560882,-0.275051617,0.722597267,-0.626881845,-9790,-11412,5882,-153,1258,42,553,-221,-364,2
585558668,1163,-64,-217,-0.904208688,-0.321407752,-0.267922305,0.720710224,-0.631943615,-10898,-10000,7180,-241,1273,92,547,-241,-382,2
585578668,1106,214,-21,-0.896617835,-0.340650478,-0.269752068,0.72035186,-0.631745175,-11556,-5370,11134,-82,1421,98,545,-255,-337,2
585598668,1172,223,133,-0.887386503,-0.362852218,-0.271239548,0.719919039,-0.631694678,-10144,-5264,14460,-138,1726,96,559,-229,-306,2
585618668,1388,229,2,-0.876758344,-0.387372995,-0.271537078,0.721202154,-0.630082296,-6352,-5208,13094,-31,1781,43,537,-227,-310,2
585638668,1785,85,-230,-0.861518014,-0.419556255,-0.271878204,0.725685757,-0.624681706,318,-7444,10088,232,1743,-187,543,-231,-304,2
585658668,1591,126,32,-0.859016934,-0.430713762,-0.261514215,0.730062695,-0.623794589,-2454,-6602,15024,-144,1214,-288,529,-215,-287,2
585678668,1271,518,211,-0.857687525,-0.436619896,-0.256045214,0.734344,-0.621104987,-7558,152,18188,-205,1106,-480,521,-195,-260,2
585698668,1132,500,40,-0.85015472,-0.450592477,-0.256462143,0.742503786,-0.611059757,-9582,-134,15840,207,1506,-452,525,-191,-255,2
585718668,1342,160,-299,-0.837260112,-0.473996658,-0.256812824,0.754984664,-0.595706055,-5806,-5892,11000,678,1834,-278,527,-189,-238,2
585738668,1322,-156,-319,-0.830011345,-0.489729531,-0.249986879,0.767059721,-0.58287669,-5836,-10936,11162,577,1415,-268,507,-179,-223,2
585758668,1362,-156,-261,-0.824655313,-0.503176857,-0.240199674,0.777022248,-0.573588492,-4988,-10610,12572,349,1308,-304,517,-167,-187,2
585778668,1361,373,-206,-0.819036398,-0.51047709,-0.243817923,0.785747442,-0.560062366,-4876,-1904,13764,476,1157,-287,493,-159,-204,2
585798668,1511,287,-16,-0.816610118,-0.509716798,-0.253898433,0.797044421,-0.539611537,-2310,-3670,16874,873,1032,-128,483,-137,-171,2
585818668,1873,220,-59,-0.809325222,-0.515081737,-0.266435743,0.806095507,-0.520088751,3440,-5106,15944,968,745,-115,485,-123,-137,2
585838668,2108,247,240,-0.813928306,-0.500694908,-0.280701643,0.813764703,-0.500958994,7052,-5126,20252,975,-227,-33,497,-119,-164,2
585858668,2490,186,920,-0.830332905,-0.463171132,-0.297845194,0.8194879,-0.481967457,12616,-6644,29922,992,-1329,122,515,-121,-133,2
585878668,2224,470,1916,-0.863098148,-0.386655876,-0.315047739,0.81469335,-0.479662128,7244,-2654,-22116,266,-3389,552,521,-117,-151,2
585898668,1634,1377,682,-0.872434739,-0.343184793,-0.341096068,0.810409773,-0.470409231,-2464,11066,22184,597,-1635,798,549,-107,-119,2
585918668,1651,1059,555,-0.878606394,-0.290311486,-0.376127936,0.821715191,-0.42437616,-2410,4894,18444,2205,-1386,617,595,-99,-122,2
585938668,2120,0,-567,-0.879244385,-0.246137032,-0.40866183,0.84372393,-0.347986717,5054,-13046,-932,3409,-381,238,621,-101,-143,2
585958668,2633,-373,-1381,-0.880118323,-0.212146195,-0.427793103,0.862476617,-0.274450514,13242,-19584,-15084,3131,58,-113,661,-125,-136,2
585978668,2641,-7,-1441,-0.888970383,-0.175895188,-0.426055667,0.874457425,-0.236890698,13110,-13662,-17274,1517,-777,-498,651,-139,-120,2
585998668,2199,-43,-1214,-0.900225066,-0.133512082,-0.416994938,0.882683679,-0.220246442,5670,-13968,-15030,633,-1454,-572,703,-129,-159,2
586018668,2093,69,-1043,-0.911762903,-0.083915943,-0.403806964,0.8873556,-0.223646499,3586,-11782,-13910,-183,-2124,-604,723,-147,-156,2
586038668,1938,236,-1077,-0.91900395,-0.033033926,-0.394047798,0.890261689,-0.227567438,866,-8814,-16122,-184,-2155,-469,723,-113,-193,2
586058668,1736,345,-1163,-0.923474822,0.021558221,-0.383704111,0.893296482,-0.231492238,-2516,-6758,-19282,-161,-2291,-500,779,-133,-231,2
586078668,1359,329,-1029,-0.924962703,0.079628473,-0.371607836,0.897365194,-0.233464668,-8600,-6646,-19042,-42,-2386,-573,777,-103,-213,2
586098668,985,300,-991,-0.92757592,0.110258427,-0.357296877,0.900393512,-0.244543526,-14548,-6676,-20200,-26,-2188,-658,793,-109,-261,2
586118668,699,57,-1032,-0.931275601,0.131985126,-0.338388264,0.902812278,-0.259466339,-19198,-10064,-21666,-140,-1963,-753,819,-113,-294,2
586138668,516,-180,-1081,-0.934946269,0.147424124,-0.319617544,0.902042415,-0.281868592,-22192,-13392,-22988,-476,-1839,-648,847,-109,-266,2
586158668,337,-217,-1114,-0.936394505,0.155952958,-0.310478132,0.893661775,-0.315357791,-25092,-13682,-23822,-1037,-1752,-379,865,-79,-316,2
586178668,241,-99,-1137,-0.93577531,0.157076828,-0.311794417,0.877414338,-0.356530108,-26638,-11726,-24252,-1470,-1600,-177,865,-89,-316,2
586198668,197,-18,-1152,-0.934847916,0.149741804,-0.318506125,0.856696121,-0.398547307,-27338,-10568,-24266,-1585,-1289,-64,893,-71,-324,2
586218668,180,102,-1177,-0.934476072,0.129767669,-0.328606614,0.834250173,-0.436305646,-27640,-8876,-24020,-1464,-714,6,891,-69,-317,2
586238668,139,180,-1256,-0.934717514,0.095151242,-0.33985395,0.812838169,-0.467158185,-28350,-7926,-24154,-1192,4,68,911,-69,-334,2
586258668,172,183,-1135,-0.93397548,0.040982865,-0.353182837,0.789614946,-0.496913927,-27848,-8306,-20444,-1180,838,227,901,-69,-298,2
586278668,666,233,-626,-0.930891579,0.022056576,-0.363326919,0.765414929,-0.526736084,-19864,-7922,-10724,-1600,395,285,895,-93,-295,2
586298668,1608,231,793,-0.922015633,0.052956562,-0.384521606,0.735565325,-0.55477252,-4520,-8608,10984,-1695,-1848,715,897,-65,-289,2
586318668,2396,654,2160,-0.902529767,0.147533393,-0.40871587,0.708820445,-0.573636401,8644,-2610,29832,-1403,-4619,761,921,-81,-309,2
586338668,3229,1936,1214,-0.888599278,0.190649536,-0.423173654,0.685768263,-0.591988746,22508,17506,13210,-1293,-2358,280,931,-73,-367,2
586358668,179,1940,2476,-0.894434188,0.215057038,-0.395570614,0.690302955,-0.603542464,-26458,18410,32580,-15,-941,-1230,941,-79,-371,2
586378668,408,893,2093,-0.901083233,0.184814578,-0.39547819,0.701676497,-0.59038184,-23018,1660,27446,659,1819,63,957,-39,-374,2
586398668,1015,934,767,-0.907472838,0.165793296,-0.388401949,0.732597364,-0.556292715,-13694,2772,7204,1757,2207,-389,947,-41,-344,2
586418668,-213,746,-639,-0.931501064,0.085589772,-0.351888286,0.7536682,-0.550187046,31520,612,-12946,869,4046,-1460,961,-35,-332,2
586438668,1071,-1894,-1680,-0.942156468,0.050460808,-0.327361478,0.792987175,-0.507556349,-13796,24678,-28476,2365,2530,-916,975,-11,-276,2
586458668,2997,-1392,548,-0.943111472,0.059571426,-0.322706539,0.803041615,-0.494320039,17042,-32664,6820,648,-1,-235,953,3,-264,2
586478668,1869,-117,-316,-0.940512128,0.032875642,-0.334535991,0.766347898,-0.54263624,-946,-12640,-6102,-2512,457,285,987,-19,-272,2
586498668,1097,934,-1114,-0.943939149,-0.014074931,-0.32498278,0.736259755,-0.587602094,-13412,4472,-17332,-2223,1421,-486,971,-5,-251,2
586518668,597,1312,-1367,-0.94643366,-0.037933934,-0.314636414,0.729335031,-0.601181427,-21468,10848,-20622,-652,977,-482,965,45,-232,2
586538668,1069,389,-1235,-0.945891347,-0.069942059,-0.311523581,0.73727781,-0.594024012,-13934,-3808,-18144,654,865,-261,971,71,-248,2
586558668,1522,-110,-1255,-0.943907153,-0.08977695,-0.310927261,0.748500548,-0.579183608,-6600,-11792,-17116,707,1266,-167,973,55,-217,2
586578668,1437,-586,-906,-0.940710679,-0.119247423,-0.310428291,0.750830516,-0.57648278,-7842,-19388,-10580,110,1468,-119,959,65,-176,2
586598668,1441,-205,-691,-0.93771054,-0.164511876,-0.297213991,0.744503323,-0.590930168,-7612,-13256,-5934,-555,1574,-52,959,65,-195,2
586618668,1388,188,-529,-0.931767918,-0.203149445,-0.291254973,0.73703973,-0.602949649,-8320,-6558,-1948,-549,1470,-24,965,71,-162,2
586638668,1286,178,-394,-0.925602347,-0.23309874,-0.287653784,0.73606671,-0.605583774,-9734,-6598,1286,-112,1363,-17,951,45,-113,2
586658668,1308,-22,-206,-0.920781586,-0.25536591,-0.283967583,0.737966131,-0.60506271,-9142,-9814,5162,49,1271,113,941,75,-111,2
586678668,1279,-43,-239,-0.916741714,-0.275832415,-0.27716187,0.739500221,-0.606138768,-9472,-9942,5296,-34,1164,18,921,67,-84,2
586698668,1228,-24,-174,-0.913890945,-0.291576969,-0.269718915,0.740538558,-0.608000161,-10180,-9384,6906,-101,1015,-16,905,69,-81,2
586718668,1178,93,-122,-0.91004955,-0.30589569,-0.266829143,0.741561152,-0.608138714,-10862,-7326,8260,-44,1042,32,895,77,-59,2
586738668,1143,212,-77,-0.902297124,-0.326395767,-0.268212911,0.744508132,-0.603721874,-11178,-5366,9722,134,1465,19,903,63,-36,2
586758668,1232,170,-128,-0.890194252,-0.358259359,-0.267746222,0.745601859,-0.602673681,-9340,-6070,9944,-9,1929,51,899,83,1,2
586778668,1283,120,-388,-0.874411253,-0.397292616,-0.264099152,0.746991154,-0.602541871,-8046,-6804,6934,-8,2097,-22,847,87,47,2
586798668,1330,139,-376,-0.860821249,-0.429816948,-0.257104756,0.752078377,-0.599164993,-6826,-6258,8236,85,1921,-249,849,93,61,2
586818668,1460,382,-165,-0.850955607,-0.45193571,-0.251608694,0.758365324,-0.593559133,-4372,-2030,12496,59,1682,-409,817,93,76,2
586838668,1491,440,87,-0.845758893,-0.463432262,-0.2478132,0.766969226,-0.583979437,-3636,-928,17038,171,1424,-476,815,101,108,2
586858668,1418,-35,267,-0.844642242,-0.469831513,-0.238583969,0.777706701,-0.573264021,-4644,-8502,20204,272,1331,-398,785,123,111,2
586878668,1371,-199,279,-0.841256078,-0.480246309,-0.229302759,0.786135253,-0.565477345,-5250,-10928,20730,202,1494,-222,763,125,119,2
586898668,1327,213,25,-0.831404312,-0.497810919,-0.227483267,0.793222329,-0.556285271,-5746,-4018,17166,230,1731,-278,775,115,134,2
586918668,1325,424,-25,-0.822504407,-0.509291578,-0.234091193,0.80336058,-0.538796591,-5528,-718,16726,618,1533,-323,733,127,151,2
586938668,1702,106,-19,-0.818557721,-0.513107128,-0.23997073,0.817620037,-0.514590273,706,-6230,16936,1023,1277,-266,703,115,144,2
586958668,1901,215,10,-0.814773895,-0.513759628,-0.251336023,0.826711066,-0.494455434,3710,-4710,17006,964,492,-168,717,115,160,2
586978668,2082,153,339,-0.821596866,-0.496843759,-0.263851007,0.832738182,-0.478068033,6386,-6098,21712,829,-412,-21,709,111,150,2
586998668,2495,163,924,-0.839302555,-0.457547791,-0.279840002,0.835812479,-0.463846238,12400,-6448,29802,781,-1492,198,737,113,159,2
587018668,1945,540,1592,-0.868011111,-0.391194427,-0.294051106,0.825836727,-0.473190133,2628,-872,-27170,-247,-3057,673,773,119,96,2
587038668,1691,1497,518,-0.878608473,-0.342763692,-0.324495585,0.823689716,-0.458483832,-1756,13498,19550,892,-1770,870,795,131,82,2
587058668,1688,997,345,-0.885037774,-0.290841613,-0.358992393,0.83591192,-0.410278324,-2032,4426,15104,2290,-1338,567,815,111,60,2
587078668,2267,-61,-945,-0.883961083,-0.25221375,-0.392785279,0.857813174,-0.32959171,7246,-13542,-6774,3585,-107,231,825,79,44,2
587098668,2708,-223,-1544,-0.885716517,-0.221440561,-0.409171665,0.876271825,-0.255825931,14260,-16624,-17390,3116,137,-248,837,43,20,2
587118668,2627,195,-1507,-0.895572133,-0.181199254,-0.407651836,0.886850595,-0.219367357,12666,-9878,-18152,1457,-1004,-485,837,47,40,2
587138668,2198,-5,-1115,-0.907370904,-0.133211793,-0.399468924,0.893795202,-0.204247119,5414,-12832,-13452,562,-1737,-525,861,39,18,2
587158668,2061,321,-1013,-0.917905957,-0.076184526,-0.389670156,0.897763841,-0.203731187,2868,-7324,-13678,-23,-2364,-483,885,49,-28,2
587178672,1893,471,-1013,-0.923767112,-0.019938685,-0.382616071,0.900820255,-0.20257432,-12,-4708,-15524,28,-2289,-373,905,61,-44,2
587198672,1629,367,-1100,-0.927070694,0.033318026,-0.373250253,0.904092092,-0.203962807,-4342,-6086,-18666,-56,-2179,-462,945,21,-84,2
587218672,1194,321,-1030,-0.930314563,0.065425366,-0.361060092,0.90697821,-0.213387119,-11322,-6498,-19280,-41,-2153,-516,971,53,-141,2
587238672,905,116,-1033,-0.933172522,0.090206932,-0.347030361,0.909125498,-0.224891189,-16002,-9402,-20238,-95,-1972,-518,991,55,-181,2
587258672,692,-68,-1066,-0.936015718,0.108761877,-0.332678036,0.908901755,-0.244366469,-19456,-11972,-21448,-404,-1903,-483,1015,81,-220,2
587278672,431,-126,-1077,-0.937314678,0.122285692,-0.323279314,0.903458137,-0.273432853,-23664,-12596,-22126,-833,-1908,-361,1021,65,-247,2
587298672,308,-74,-1038,-0.931416642,0.161012998,-0.323163801,0.895035271,-0.298758717,-25626,-11602,-21856,-1113,-1876,-243,1065,85,-284,2
587318672,262,-13,-1028,-0.924010402,0.192638036,-0.327740268,0.883713929,-0.326246725,-26112,-10764,-22740,-1252,-1640,-121,1071,75,-303,2
587338672,264,3,-1063,-0.922600213,0.187774878,-0.335278038,0.867773393,-0.360349314,-25818,-10746,-24088,-1203,-1302,-16,1055,93,-341,2
587358672,308,96,-1144,-0.92174487,0.172213774,-0.346733942,0.85029562,-0.390769565,-25114,-9554,-24882,-1103,-810,106,1051,85,-373,2
587378672,114,153,-1195,-0.921280393,0.142751349,-0.361490542,0.833032649,-0.414048363,-28268,-9018,-24732,-847,-106,211,1055,87,-371,2
587398672,256,158,-850,-0.91822473,0.135220891,-0.372978326,0.819395564,-0.431523303,-26000,-9414,-18026,-975,123,251,1059,71,-356,2
587418672,904,110,-179,-0.912927046,0.136047503,-0.386708915,0.802814934,-0.451085843,-15462,-10602,-7314,-1123,-317,326,1061,57,-354,2
587438672,1283,169,1026,-0.896210762,0.198060317,-0.400791135,0.787555642,-0.466617648,-8874,-10328,10406,-1237,-2526,605,1071,47,-398,2
587458672,2517,531,1994,-0.861354057,0.297664873,-0.418003397,0.772299571,-0.47845226,11934,-4858,22240,-926,-4834,394,1081,41,-419,2
587478672,1937,2143,675,-0.84408769,0.339753574,-0.421885881,0.758098919,-0.497606086,3300,20856,-308,-996,-2297,-270,1077,31,-511,2
587498672,267,1265,3059,-0.847034521,0.349438151,-0.406112418,0.761047237,-0.504625658,-23490,7296,-28040,48,-264,-741,1085,39,-560,2
587518672,487,890,1805,-0.860079745,0.315663006,-0.40607162,0.765616061,-0.497749211,-20406,1290,18546,280,1905,36,1087,39,-522,2
587538672,953,791,1186,-0.871282842,0.301306721,-0.39124334,0.789135966,-0.471200321,-13526,280,9548,1358,2051,-425,1069,51,-489,2
587558672,-385,1114,-1007,-0.898118796,0.205104357,-0.392036843,0.791097349,-0.467264909,29718,5996,-23376,646,3989,-853,1055,43,-467,2
587578672,1352,-1103,-1848,-0.918081868,0.160080682,-0.36266229,0.823541325,-0.431630824,-8516,-29296,30780,2072,3021,-884,1079,59,-398,2
587598672,3524,-911,1170,-0.918735119,0.172001315,-0.354901794,0.835366251,-0.414565431,26272,-25964,13088,845,-30,-248,1075,63,-399,2
587618672,2100,-563,-23,-0.917662818,0.151880903,-0.367551851,0.812385779,-0.448510462,3514,-20786,-5332,-1751,385,142,1079,65,-408,2
587638672,1077,851,-1494,-0.927165827,0.101054577,-0.360108271,0.786635479,-0.4970637,-13182,2060,-27186,-2200,1552,-678,1043,67,-353,2
587658672,486,1413,-1693,-0.933702789,0.079352444,-0.347029277,0.788946275,-0.501726098,-22828,11462,-29682,-93,1082,-621,1061,65,-351,2
587678672,950,456,-1360,-0.934848465,0.07692384,-0.344301379,0.806268532,-0.475473121,-15444,-3768,-24270,1252,731,-92,1061,59,-332,2
587698672,1719,-678,-1354,-0.935996667,0.062106691,-0.343902736,0.818084791,-0.45515839,-3180,-21900,-23690,921,1148,-31,1057,63,-320,2
587718672,1476,-789,-946,-0.937086245,0.028270494,-0.345102038,0.811459491,-0.46593173,-7102,-23712,-16052,-546,1437,-55,1029,43,-317,2
587738672,1453,39,-710,-0.939344564,-0.025373483,-0.338983636,0.7972217,-0.494485382,-7458,-10532,-10932,-1142,1522,0,1029,59,-275,2
587758672,1302,277,-568,-0.937836174,-0.071767423,-0.335796672,0.786203371,-0.513612391,-9894,-6486,-7044,-794,1469,-20,1025,51,-252,2
587778672,1250,153,-468,-0.935870755,-0.109989841,-0.329759715,0.783138042,-0.521517383,-10642,-8358,-4112,-275,1413,-52,1037,47,-231,2
587798672,1236,100,-388,-0.931944553,-0.144524695,-0.32649035,0.781582251,-0.525323987,-10720,-9142,-1616,-116,1427,97,1031,79,-217,2
587818672,1214,91,-293,-0.928046783,-0.175249327,-0.32203596,0.782372659,-0.526810486,-10928,-9148,998,-20,1414,40,997,47,-168,2
587838672,1128,1,-198,-0.923618009,-0.205381544,-0.316095275,0.784340724,-0.527157426,-12126,-10464,3594,12,1520,50,1001,47,-137,2
587858672,1079,156,-41,-0.913731888,-0.240487117,-0.319825383,0.784450173,-0.524833027,-12692,-7810,7242,80,1747,47,993,45,-137,2
587878672,1128,147,143,-0.906931488,-0.267263878,-0.317349645,0.786593771,-0.522948954,-11522,-8030,11426,-45,1843,25,971,57,-120,2
587898672,1376,102,151,-0.903648317,-0.284789354,-0.311168627,0.789631575,-0.522095399,-7416,-8600,12112,-83,1412,-60,961,45,-80,2
587918672,1889,84,177,-0.899488904,-0.301428804,-0.306966544,0.793308042,-0.518786857,744,-8558,12714,98,953,-305,953,39,-52,2
587938672,1791,45,223,-0.894191774,-0.321748007,-0.301134921,0.794178603,-0.520613292,-650,-9000,14116,-150,1039,-291,945,51,-70,2
587958672,1367,524,163,-0.891058115,-0.335021811,-0.295467176,0.796223167,-0.520580299,-7206,-1068,14000,-255,1251,-372,927,57,-13,2
587978672,1075,518,-4,-0.883543462,-0.355998162,-0.293120906,0.802189916,-0.51266009,-11684,-1020,11938,119,1614,-474,913,59,-6,2
587998672,1158,178,-205,-0.873718869,-0.38239757,-0.288598836,0.812700313,-0.498340882,-9992,-6606,9468,544,1842,-354,911,57,21,2
588018672,1202,-59,-224,-0.865581444,-0.40509719,-0.281590165,0.824845193,-0.482128132,-8958,-10352,9890,678,1711,-297,893,51,47,2
588038672,1272,29,-181,-0.860275611,-0.421213657,-0.273226626,0.834914181,-0.469133891,-7654,-8604,11162,445,1422,-372,869,-3,42,2
588058672,1221,294,-268,-0.854096411,-0.43346988,-0.273496944,0.844691506,-0.451389195,-8340,-4182,10132,655,1256,-370,855,35,91,2
588078672,1374,140,-215,-0.849609401,-0.439523729,-0.277630978,0.8564598,-0.426128665,-5682,-6900,11232,1043,1169,-227,849,-11,97,2
588098672,1740,23,-251,-0.843422603,-0.444345601,-0.289064267,0.864348175,-0.402485991,194,-8974,10558,1071,756,-137,817,-21,93,2
588118672,1924,111,-5,-0.846164081,-0.43182295,-0.300845932,0.869899888,-0.382198825,3052,-7934,14076,939,-109,-48,809,-51,67,2
588138672,2344,81,376,-0.856176065,-0.403274247,-0.31310394,0.873108923,-0.365517337,9442,-8798,19240,792,-907,65,801,-45,54,2
588158672,2603,467,1500,-0.881161999,-0.333212176,-0.327641596,0.869184237,-0.363035992,12726,-3090,-30550,229,-3011,449,837,-91,46,2
588178672,1756,1236,993,-0.892234638,-0.285260513,-0.344179865,0.858952805,-0.372912541,-1170,8710,25274,-310,-2132,729,837,-99,-8,2
588198672,1381,1572,564,-0.896814771,-0.232287381,-0.374079824,0.858114354,-0.347994972,-7316,13168,16668,1194,-1759,825,859,-147,-23,2
588218672,1713,459,63,-0.896229878,-0.187064506,-0.40295662,0.86768527,-0.290934578,-1998,-5520,7184,2484,-818,526,851,-219,-74,2
588238672,2522,-284,-874,-0.893311277,-0.157043941,-0.424439882,0.881672055,-0.21202413,11030,-18062,-8774,3316,304,153,859,-257,-85,2
588258672,2790,-202,-1412,-0.895633092,-0.126509899,-0.430520553,0.891996469,-0.149497051,15260,-16922,-18406,2546,-25,-247,845,-331,-150,2
588278672,2595,210,-990,-0.903994229,-0.079131849,-0.42392322,0.899199488,-0.120928498,11878,-10128,-13226,1119,-1440,-486,845,-359,-160,2
588298672,2172,-189,-934,-0.911136311,-0.028463561,-0.414400384,0.904785175,-0.108652223,4874,-16226,-13990,469,-1878,-502,855,-393,-214,2
588318672,2032,0,-1040,-0.914574163,0.025054304,-0.406493395,0.907452421,-0.112574847,2514,-12968,-17430,-180,-2274,-402,863,-421,-236,2
588338672,1857,323,-1019,-0.912549919,0.074715322,-0.405329567,0.906316185,-0.1248505,-218,-7764,-18726,-527,-2256,-153,881,-431,-245,2
588358672,1408,220,-1065,-0.908506803,0.121956764,-0.40298603,0.90537443,-0.137114899,-7270,-9342,-21010,-520,-2149,-226,877,-437,-288,2
588378672,985,177,-986,-0.909199249,0.142750008,-0.394796291,0.905754734,-0.157672638,-13876,-9870,-21206,-424,-1992,-359,881,-453,-286,2
588398672,790,68,-988,-0.910462141,0.157969914,-0.38523504,0.905393079,-0.179436266,-17014,-11348,-21792,-456,-1821,-396,893,-463,-278,2
588418672,570,-76,-991,-0.912004957,0.16937284,-0.375393141,0.903061312,-0.206390299,-20554,-13400,-22262,-667,-1799,-392,895,-437,-299,2
588438672,423,-120,-1080,-0.912382277,0.176347962,-0.370678066,0.89700128,-0.23727401,-22910,-13938,-23950,-869,-1723,-252,919,-433,-292,2
588458672,320,-46,-1109,-0.911351737,0.180335766,-0.3713184,0.886911113,-0.27124376,-24546,-12690,-24566,-1039,-1685,-189,913,-435,-294,2
588478672,274,0,-1092,-0.909856996,0.179807197,-0.375490429,0.874538692,-0.303652856,-25250,-12036,-24284,-1019,-1487,-98,925,-419,-289,2
588498672,321,31,-1158,-0.909876037,0.169195633,-0.380860839,0.862657379,-0.330338258,-24500,-11690,-25002,-802,-956,-14,943,-415,-278,2
588518672,276,225,-1199,-0.908978673,0.150548588,-0.391501126,0.849441653,-0.352285082,-25264,-8776,-25048,-654,-538,67,933,-413,-289,2
588538672,389,409,-930,-0.902181216,0.155307602,-0.406316247,0.834752867,-0.371026101,-23352,-6412,-19958,-1060,-487,361,955,-397,-267,2
588558672,405,528,-408,-0.889230363,0.165636297,-0.433219503,0.810237609,-0.397364113,-22680,-5316,-11938,-1591,-1017,753,959,-413,-282,2
588578672,1191,304,856,-0.866129411,0.21315494,-0.462504722,0.782540621,-0.423038365,-9364,-9980,7132,-1940,-2451,1021,975,-413,-273,2
588598672,1817,452,1783,-0.837650646,0.272758953,-0.487032913,0.757557342,-0.444204809,1554,-8140,19648,-1506,-3465,540,969,-429,-295,2
588618672,2436,903,805,-0.824492984,0.296942433,-0.496901093,0.739117451,-0.465269545,11936,-1184,3166,-1223,-1695,-63,985,-437,-315,2
588638672,545,1256,1105,-0.824713185,0.327371232,-0.473669805,0.745272212,-0.475816883,-18320,5140,6962,87,-1268,-1045,1001,-405,-289,2
588658672,521,1352,2077,-0.832156604,0.313964259,-0.469028103,0.753361853,-0.467165414,-18940,6818,22946,480,1095,-90,1011,-397,-334,2
588678672,693,1209,1288,-0.843273561,0.296444794,-0.458988285,0.772403095,-0.44430724,-16564,4818,10906,1231,1680,-62,1009,-393,-305,2
588698672,352,897,-29,-0.87219605,0.233386626,-0.43763971,0.787141431,-0.437103216,-23008,436,-8062,746,3530,-751,1009,-369,-305,2
588718672,1327,-219,-570,-0.901926374,0.180481117,-0.396015758,0.814004472,-0.423838923,-8078,-16564,-15506,1465,2574,-907,1017,-377,-249,2
588738672,3110,-247,819,-0.911961025,0.175568802,-0.371735974,0.83641153,-0.398793953,19852,-15864,7370,1439,995,-799,1023,-359,-250,2
588758672,1101,-321,-912,-0.922863804,0.131524585,-0.362323418,0.836202584,-0.407913424,-12368,-17144,-19578,-70,1177,50,1009,-343,-244,2
588778672,976,118,-1281,-0.934919061,0.072249185,-0.346387818,0.831212087,-0.430614669,-14920,-9340,-23662,-532,1479,-663,1013,-337,-210,2
588798672,928,61,-1318,-0.940441303,0.02989506,-0.336085123,0.832210798,-0.435787275,-15898,-9962,-22868,146,993,-318,1013,-335,-163,2
588818672,1426,-291,-1308,-0.94125155,0.006679766,-0.333575417,0.831102584,-0.438432224,-8046,-15390,-21130,-159,1131,-182,1015,-305,-167,2
588838672,1461,-7,-1108,-0.941335874,-0.024830984,-0.332158075,0.824306238,-0.452057663,-7478,-10798,-16908,-650,1299,-131,1019,-299,-159,2
588858672,1398,238,-655,-0.940383976,-0.07057316,-0.32814805,0.814099975,-0.473261211,-8428,-6896,-8510,-835,1382,-21,1005,-283,-128,2
588878672,1329,458,-508,-0.935727773,-0.111127172,-0.329752158,0.804759065,-0.487702997,-9434,-3298,-4704,-628,1403,56,993,-271,-105,2
588898672,1275,290,-485,-0.93117643,-0.146630691,-0.32803316,0.802469553,-0.492279442,-10120,-6026,-3144,-150,1395,4,975,-277,-53,2
588918672,1300,24,-384,-0.927903585,-0.177250305,-0.320942054,0.804712411,-0.492646756,-9544,-10232,-438,51,1376,-21,971,-285,-45,2
588938672,1276,-5,-245,-0.924475186,-0.20473874,-0.313637472,0.80761558,-0.492302673,-9786,-10486,2802,48,1394,-9,939,-261,-23,2
588958672,1238,-156,-173,-0.922078384,-0.229407744,-0.302769658,0.810873838,-0.493527697,-10268,-12656,4820,-24,1330,-20,943,-263,18,2
588978672,1215,-123,-200,-0.91868782,-0.253518093,-0.292708357,0.811141416,-0.498647783,-10536,-11784,5184,-219,1254,27,931,-283,30,2
588998672,1164,39,-151,-0.91373004,-0.275781184,-0.287313296,0.808476977,-0.50571499,-11210,-8900,6760,-352,1223,103,921,-271,42,2
589018672,1143,265,-130,-0.904808646,-0.302387048,-0.288584479,0.805687713,-0.509480629,-11290,-5142,8024,-241,1528,115,901,-259,92,2
589038672,1212,297,-30,-0.893116968,-0.332933309,-0.291283144,0.804924915,-0.509317415,-9768,-4696,10734,-94,1910,104,903,-251,95,2
589058672,1374,154,-36,-0.881582567,-0.363557417,-0.289392729,0.804322591,-0.51130219,-6742,-7042,11664,-177,1938,104,869,-241,134,2
589078672,1640,38,66,-0.876227599,-0.38165883,-0.281546702,0.806531832,-0.511919612,-2248,-8714,13940,-161,1471,-69,827,-243,158,2
589098676,1688,172,68,-0.875203159,-0.391176509,-0.270745657,0.808149308,-0.514832497,-1458,-6148,14292,-333,1045,-237,815,-231,159,2
589118676,1307,592,213,-0.874829851,-0.393197948,-0.269151522,0.809704978,-0.513325289,-7594,942,16768,-226,860,-325,823,-221,214,2
589138676,1144,421,40,-0.869449385,-0.406583525,-0.266460395,0.815334037,-0.505785599,-10038,-1786,14364,83,1371,-410,827,-213,203,2
589158676,1295,14,-233,-0.859640939,-0.431232231,-0.258473032,0.823725108,-0.49596471,-7282,-8382,10644,335,1748,-300,795,-207,219,2
589178676,1373,-164,-349,-0.851447493,-0.452380717,-0.248694415,0.832233779,-0.486587264,-5756,-11024,9412,365,1514,-255,765,-211,222,2
589198676,1416,131,-283,-0.846830275,-0.463977404,-0.242606004,0.837936101,-0.47974276,-4926,-5914,10920,168,1120,-275,755,-201,251,2
589218676,1294,395,-22,-0.844597369,-0.466350295,-0.246045076,0.843410507,-0.468478113,-6776,-1586,15324,317,945,-228,739,-203,228,2
589238676,1641,292,-30,-0.842506396,-0.468129564,-0.249711837,0.85155789,-0.451579267,-1122,-3470,15258,606,1009,-207,739,-207,223,2
589258676,1982,164,-4,-0.839335892,-0.468961038,-0.259202284,0.85811316,-0.433920572,4204,-5776,15304,821,451,-119,739,-183,225,2
589278676,2222,-40,359,-0.844716189,-0.45269713,-0.270631467,0.862540146,-0.418024497,7864,-9402,20588,766,-368,9,721,-205,191,2
589298676,2580,178,760,-0.860437738,-0.416624982,-0.280298871,0.863548754,-0.410190631,13076,-6220,25824,420,-1414,126,737,-199,187,2
589318676,1999,642,1422,-0.886436461,-0.352493141,-0.288236301,0.852549722,-0.427401293,2890,942,-31162,-655,-3011,549,765,-181,151,2
589338676,1450,1926,334,-0.89681197,-0.301292891,-0.3153042,0.848470237,-0.41756721,-6212,20646,15254,616,-1948,852,793,-197,145,2
589358676,1386,1264,601,-0.902438326,-0.245650593,-0.348900927,0.858693844,-0.369526405,-7434,9008,17716,2231,-1523,650,795,-213,94,2
589378676,1914,38,-708,-0.899560183,-0.214873591,-0.378275554,0.879866362,-0.284157211,1082,-11520,-4200,3703,252,181,803,-229,44,2
589398676,2604,-202,-1414,-0.898095986,-0.18794531,-0.397802383,0.895832861,-0.198276374,12174,-15952,-16386,3593,474,-94,769,-259,-14,2
589418676,2437,167,-1221,-0.906645231,-0.14666209,-0.395720974,0.906691946,-0.146379653,9256,-9972,-14698,2066,-790,-564,769,-307,-44,2
589438676,2189,24,-941,-0.916500844,-0.098154942,-0.387698924,0.913599454,-0.121593336,4972,-12012,-11818,954,-1583,-547,769,-299,-100,2
589458676,2027,-41,-1026,-0.924774947,-0.048008958,-0.376846219,0.918388775,-0.116672251,2106,-12724,-14818,156,-1968,-539,773,-289,-106,2
589478676,1920,194,-999,-0.929071033,0.001563897,-0.368973532,0.920715405,-0.12095556,250,-8722,-16010,-201,-2070,-396,775,-297,-121,2
589498676,1651,301,-1106,-0.930722116,0.0466497,-0.361522509,0.922176106,-0.129665498,-4104,-6782,-19206,-369,-1933,-391,783,-297,-138,2
589518676,1222,283,-1010,-0.933492294,0.072936742,-0.350233657,0.924057372,-0.14673844,-10966,-6788,-19202,-374,-2008,-480,797,-291,-144,2
589538676,943,117,-972,-0.936465636,0.093661539,-0.336396267,0.92622146,-0.162347116,-15498,-9062,-19354,-283,-1824,-526,819,-307,-145,2
589558676,766,-38,-990,-0.93988451,0.10991258,-0.320466015,0.927848022,-0.181180933,-18402,-11110,-20238,-396,-1742,-549,845,-301,-179,2
589578676,581,-122,-1028,-0.942745067,0.122835271,-0.306106995,0.92688027,-0.20675166,-21436,-12024,-21324,-672,-1754,-507,855,-291,-167,2
589598676,486,-93,-1025,-0.943814572,0.133947026,-0.297448027,0.921122972,-0.240696479,-22994,-11248,-21666,-1057,-1824,-393,891,-295,-191,2
589618676,425,17,-1027,-0.943047917,0.142658394,-0.295922819,0.910782093,-0.278531866,-23964,-9338,-22004,-1270,-1807,-277,881,-301,-199,2
589638676,376,93,-1080,-0.941415703,0.144524289,-0.300219446,0.897813043,-0.313362317,-24710,-8184,-22930,-1204,-1509,-130,921,-319,-224,2
589658676,291,195,-1148,-0.939847067,0.1358459,-0.309521934,0.884348027,-0.341590406,-26044,-6748,-23746,-965,-994,-3,941,-301,-208,2
589678676,174,277,-1038,-0.936120633,0.139666496,-0.319022661,0.874331024,-0.357797245,-27904,-5848,-21174,-849,-268,194,951,-307,-197,2
589698676,219,330,-676,-0.931896752,0.141925346,-0.331047516,0.860666728,-0.379885571,-27042,-5372,-15460,-1137,-316,248,953,-299,-204,2
589718676,835,383,163,-0.923709413,0.151575288,-0.350662753,0.841096854,-0.406165946,-16928,-5132,-2344,-1442,-767,505,955,-305,-194,2
589738676,1596,444,1394,-0.905373793,0.203121852,-0.374304417,0.823072333,-0.423437465,-4174,-4894,15682,-1149,-2557,684,961,-315,-192,2
589758676,2362,742,1606,-0.880130647,0.274715697,-0.390621579,0.812347537,-0.430586848,8892,-630,16742,-647,-3341,442,991,-337,-230,2
589778676,1618,1241,1138,-0.87089728,0.312101042,-0.382716225,0.808663001,-0.443621853,-2668,7612,7992,-439,-1744,-555,1023,-329,-232,2
589798676,763,636,1735,-0.867788073,0.335002592,-0.369205282,0.813380037,-0.445454786,-16236,-1652,16786,185,-815,-589,1051,-339,-279,2
589818676,568,910,1624,-0.874656238,0.315100931,-0.370452686,0.819592789,-0.433055,-19582,2694,15664,479,1296,160,1061,-327,-292,2
589838676,967,830,877,-0.880140577,0.293258898,-0.375813092,0.825543649,-0.417680293,-13558,1446,4724,472,1781,38,1045,-359,-234,2
589858676,-131,574,-1123,-0.910042908,0.180383792,-0.374374768,0.813611437,-0.441068837,-32002,-2360,-24648,-537,3916,-922,1049,-351,-219,2
