timestamp,ax,ay,az,roll1,roll2,pitch,yaw1,yaw2,fx,fy,fz,gx,gy,gz,mx,my,mz,step
610698968,15769,2677,-4728,-0.881644458,-0.446444118,-0.117686871,0.68456633,-0.711490229,2722,1552,5322,113,-129,40,1087,-393,848,1
610718968,15093,2980,-4751,-0.884937249,-0.439240905,-0.119298927,0.685805686,-0.709842684,1244,2128,5032,92,-114,21,1101,-415,819,1
610738968,15535,3319,-3341,-0.89096874,-0.426455798,-0.122270623,0.688346297,-0.70711595,1962,2726,7492,163,-275,24,1101,-411,805,1
610758968,16219,1411,-2403,-0.899227249,-0.408868972,-0.121796498,0.691913361,-0.703605937,3086,-1190,8840,203,-421,10,1111,-401,844,1
610778968,16574,788,-2987,-0.906567769,-0.393373797,-0.119300501,0.696488079,-0.699631635,3538,-2392,7118,238,-382,-38,1101,-389,778,1
610798968,16561,1057,-3293,-0.913172886,-0.378586935,-0.116801944,0.700721376,-0.695761591,3274,-1754,5996,221,-385,-52,1117,-395,785,1
610818968,16729,840,-2892,-0.920958275,-0.360310797,-0.113425428,0.704003898,-0.692904551,3354,-2090,6208,161,-533,-48,1113,-381,776,1
610838968,16973,219,-1975,-0.930542363,-0.336642841,-0.108716421,0.706667731,-0.690995637,3538,-3210,7292,115,-736,-43,1123,-407,760,1
610858968,18117,-91,-589,-0.941943422,-0.305686207,-0.102614159,0.706810221,-0.691749306,5460,-3642,9102,-41,-996,-32,1123,-405,748,1
610878968,19605,-489,1045,-0.954505527,-0.267220223,-0.094651983,0.703768771,-0.695912577,8020,-4190,11154,-239,-1271,-37,1123,-389,706,1
610898968,22385,-706,3058,-0.964147594,-0.232664771,-0.089480028,0.695738994,-0.704615111,13162,-4342,13754,-470,-1497,-16,1135,-389,702,1
610918968,21321,-1554,7095,-0.97505847,-0.185432948,-0.082686958,0.676778896,-0.723490888,10662,-5818,20296,-1074,-2060,28,1123,-393,645,1
610938968,17221,420,582,-0.982278278,-0.147071192,-0.076508978,0.657410426,-0.741850156,2268,-1716,6176,-1067,-1445,67,1113,-407,565,1
610958968,18073,2884,-2518,-0.985248853,-0.126618955,-0.075671417,0.646404298,-0.751484388,3846,3368,-892,-558,-886,19,1105,-413,575,1
610978968,17392,3328,-4506,-0.987670295,-0.106846601,-0.07547606,0.636387002,-0.759967552,2390,4292,-5644,-484,-1010,-15,1105,-413,523,1
610998968,15652,3671,-4942,-0.989045646,-0.095546044,-0.073876205,0.629245082,-0.766143898,-1138,5066,-6952,-339,-728,-139,1105,-415,500,1
611018968,15822,3686,-5893,-0.990449306,-0.085816557,-0.067848968,0.626255814,-0.769234115,-846,5296,-9230,-140,-717,-346,1105,-433,479,1
611038968,15090,2014,-5542,-0.992016496,-0.076282488,-0.056485682,0.627398781,-0.769314915,-2354,2246,-8846,59,-707,-485,1099,-435,454,1
611058968,14648,2006,-6207,-0.992956661,-0.07150868,-0.046385496,0.630218737,-0.767788548,-3270,2572,-10386,158,-569,-452,1099,-395,449,1
611078968,13809,3618,-5460,-0.993426193,-0.066518741,-0.042904646,0.632607713,-0.765925759,-4966,6022,-9028,160,-546,-323,1093,-383,415,1
611098968,13192,2058,-4572,-0.994061165,-0.059397021,-0.038184856,0.634379081,-0.764646331,-6214,2972,-7458,131,-596,-266,1089,-391,409,1
611118968,12705,-451,-4601,-0.994584536,-0.055599349,-0.029003167,0.635077823,-0.764429916,-7198,-1912,-7664,69,-491,-236,1073,-373,379,1
611138968,12196,-5,-4115,-0.995109975,-0.045841694,-0.023200626,0.63157063,-0.767173715,-8224,-772,-6724,-149,-384,-160,1075,-373,374,1
611158972,12345,840,-3617,-0.995605871,-0.037915545,-0.018542654,0.625091955,-0.772646265,-7936,1072,-5994,-302,-318,-110,1059,-381,359,1
611178972,11895,1443,-3338,-0.995876878,-0.032595159,-0.014216548,0.61716383,-0.779042574,-8844,2420,-5608,-371,-210,-96,1069,-375,352,1
611198972,11097,1843,-3427,-0.995965291,-0.031129615,-0.010099892,0.60930223,-0.785213716,-10446,3354,-5836,-362,-55,-87,1079,-369,344,1
611218972,10797,1968,-3121,-0.995985657,-0.032233367,-0.006201823,0.602301389,-0.790673027,-11044,3732,-5188,-315,54,-81,1075,-373,339,1
611238972,10522,1392,-2509,-0.995865135,-0.035296896,-0.002274938,0.594560133,-0.796457062,-11592,2710,-3864,-348,133,-79,1081,-377,360,1
611258972,10000,2584,-1667,-0.995601777,-0.041158054,0.001402073,0.584777299,-0.803596217,-12628,5214,-1988,-447,249,-64,1043,-393,352,1
611278972,9939,3271,-163,-0.995311797,-0.04755554,0.004850056,0.574772576,-0.810797686,-12740,6700,1230,-457,271,-51,1065,-389,366,1
611298972,10615,3327,803,-0.994856417,-0.054943744,0.007884126,0.569158658,-0.814644802,-11372,6912,3406,-233,313,-43,1067,-373,373,1
611318972,12247,2953,1831,-0.994305089,-0.06367553,0.010945285,0.568818599,-0.814904608,-8090,6266,5746,25,367,-59,1079,-369,381,1
611338972,13668,803,2471,-0.994128976,-0.066218922,0.014159817,0.57156894,-0.813017733,-5224,2140,7346,173,408,-166,1065,-381,385,1
611358972,14867,-1541,3044,-0.993969597,-0.064838232,0.025303683,0.572419882,-0.812081464,-2824,-2328,8474,81,281,-298,1091,-367,387,1
611378972,14096,-1963,2983,-0.99376615,-0.062064232,0.037683382,0.570121847,-0.813217074,-4360,-2790,8262,-69,230,-308,1087,-371,401,1
611398972,12483,517,3487,-0.993093578,-0.067584375,0.044931762,0.563660942,-0.817341048,-7578,2506,9186,-281,248,-208,1099,-373,398,1
611418972,12564,1843,3452,-0.993340254,-0.064483289,0.043659012,0.555992367,-0.822568672,-7396,5294,9336,-321,300,-75,1071,-355,400,1
611438972,15969,2179,2699,-0.993557779,-0.063282313,0.040252671,0.551547801,-0.825700002,-598,5846,7694,-165,250,6,1091,-363,418,1
611458972,17821,2092,-87,-0.993790314,-0.061378488,0.037639173,0.552822132,-0.824982436,3084,5570,1890,104,0,-21,1081,-359,380,1
611478972,15376,4955,-376,-0.99400479,-0.061796226,0.031822863,0.557818556,-0.821950758,-1806,11284,1306,278,64,-127,1083,-365,402,1
611498972,9393,5147,16872,-0.996224076,0.008664608,0.027771943,0.548846435,-0.828044297,-13864,11472,-31228,-365,-1807,-86,1101,-373,367,1
611518972,17292,16792,4902,-0.995868042,-0.006998057,0.0361458,0.555270329,-0.823340708,1946,-30768,10034,370,640,-275,1089,-359,383,1
611538972,22521,401,-14898,-0.994202603,-0.044470126,0.050636396,0.597214933,-0.79291808,12430,2460,-28310,2138,1440,-583,1087,-321,380,1
611558972,21335,2758,-104,-0.992277948,-0.070334019,0.057509193,0.643390475,-0.755674006,10120,7400,2130,2439,935,-361,1107,-311,421,1
611578972,22709,-23249,-3836,-0.988729348,-0.096404547,0.075780078,0.668515183,-0.73190457,13000,21520,-4496,1381,989,-796,1117,-285,441,1
611598972,20966,-16085,1388,-0.98696902,-0.098468611,0.09356252,0.667826343,-0.730421605,9584,-29110,6002,-5,101,-655,1109,-265,453,1
611618972,32764,-18062,12959,-0.987082899,-0.077478351,0.11126222,0.646823168,-0.746591972,-32366,-32486,28466,-1086,-731,-551,1109,-245,455,1
611638972,20024,10585,3402,-0.985670675,-0.078621941,0.122415545,0.613371816,-0.772507401,7732,25172,9394,-1701,266,-246,1113,-243,444,1
611658972,12317,10352,-15015,-0.982744483,-0.0956051,0.132922827,0.609901374,-0.773499642,-7576,25046,-26898,-125,731,-347,1105,-237,443,1
611678972,16008,76,-15142,-0.98012867,-0.114287991,0.137377076,0.625494616,-0.760331193,-108,4640,-26538,854,668,-206,1109,-243,458,1
611698972,18075,-8405,-17751,-0.97815774,-0.134110102,0.132734955,0.635377262,-0.752906987,4090,-12474,-31104,569,761,189,1095,-235,468,1
611718972,16717,-2865,-13830,-0.975679688,-0.155661374,0.126627416,0.625417491,-0.762170674,1456,-1594,-22556,-460,972,393,1103,-233,486,1
611738972,16139,1116,-7986,-0.971282106,-0.188717581,0.11553388,0.609760704,-0.776776681,412,6178,-10040,-794,1158,458,1121,-257,500,1
611758972,16450,1530,-3139,-0.966996711,-0.214369632,0.104099571,0.594504738,-0.789767141,1222,6656,788,-698,1210,453,1127,-273,571,1
611778972,14902,777,36,-0.963540059,-0.232871212,0.095089295,0.579384612,-0.801934684,-1710,4808,7938,-645,1151,425,1151,-273,561,1
611798972,13766,154,3840,-0.962893829,-0.238226965,0.08829989,0.564296111,-0.813405111,-3898,3282,15962,-600,902,407,1119,-291,591,1
611818972,14089,-3569,5881,-0.964597229,-0.231036492,0.089808322,0.550173841,-0.822936922,-3308,-4354,19890,-529,472,347,1145,-295,641,1
611838972,12877,-6118,5994,-0.967623638,-0.213057432,0.100889683,0.53387727,-0.832163425,-5864,-9250,19518,-639,22,171,1147,-325,601,1
611858972,12351,-1080,6772,-0.971173322,-0.193109442,0.107253667,0.519803589,-0.840175856,-6992,1350,20494,-567,37,-69,1147,-303,616,1
611878972,15783,3826,5120,-0.974878501,-0.176394708,0.102943242,0.514050169,-0.844245085,-262,11328,16460,-212,-92,-96,1145,-305,608,1
611898972,16063,1277,4244,-0.977865586,-0.160362156,0.101851564,0.51514456,-0.843808778,168,6052,14132,120,-164,-115,1151,-305,588,1
611918972,12258,3120,2943,-0.976746112,-0.163069159,0.107884636,0.522657007,-0.838412672,-7494,9768,11226,379,88,-238,1139,-303,620,1
611938972,10592,6600,-1730,-0.975954633,-0.165355252,0.111180268,0.539185729,-0.827431591,-10802,16836,1960,820,20,-204,1133,-315,613,1
611958972,12306,2525,-2787,-0.974611888,-0.172965521,0.111132324,0.566890441,-0.808783188,-7338,8684,102,1384,173,-170,1137,-289,626,1
611978972,11757,-4632,-2245,-0.972617831,-0.185333217,0.108161528,0.595316511,-0.788577328,-8370,-5726,1594,1462,366,-77,1129,-287,612,1
611998972,12263,-7448,-2771,-0.968953885,-0.198912121,0.116340493,0.614260823,-0.772819238,-7280,-11490,974,1061,458,28,1133,-263,612,1
612018972,11286,-7488,8,-0.965881811,-0.208208451,0.125527971,0.623539371,-0.764051745,-9094,-11310,7018,618,563,118,1135,-267,617,1
612038972,11724,-6203,-1558,-0.962956876,-0.215922484,0.133638661,0.627829552,-0.758956263,-8138,-8374,4048,338,412,90,1121,-275,629,1
612058972,13593,-5730,965,-0.962875759,-0.213358808,0.139424614,0.626592292,-0.75922274,-4340,-7160,9176,67,230,146,1131,-281,650,1
612078972,18104,-7749,2767,-0.965188751,-0.199144082,0.144438668,0.617795203,-0.765364625,4608,-11038,12378,-296,-126,261,1127,-277,641,1
612098972,26773,-10142,4863,-0.969261004,-0.180424551,0.141997153,0.601418138,-0.778643802,21776,-15646,15644,-770,-651,329,1135,-287,619,1
612118972,32146,-9980,7098,-0.975954935,-0.140035437,0.142477248,0.574331351,-0.798605459,32288,-15306,18806,-1304,-1471,272,1139,-271,607,1
612138972,32764,-4939,4736,-0.981904151,-0.0820383,0.148217532,0.54256143,-0.81945134,-32220,-5034,12196,-1511,-2155,14,1129,-313,559,1
612158972,32764,599,-2475,-0.98396349,-0.017631203,0.157532509,0.517257273,-0.833912879,-32290,6342,-4338,-1154,-2456,-249,1123,-313,462,1
612178972,28128,157,-12277,-0.98242238,0.038695438,0.164551826,0.506652731,-0.839050207,24036,5686,-25798,-427,-2229,-224,1117,-317,428,1
612198972,26761,360,-13641,-0.978034679,0.085621499,0.173807182,0.507664468,-0.83659742,21452,6388,-30074,157,-1944,-305,1093,-309,366,1
612218972,25860,-3474,-10851,-0.971039517,0.128500795,0.187353301,0.505726764,-0.834968904,19882,-842,-25902,75,-1776,-485,1091,-295,357,1
612238972,24823,-8156,-11647,-0.962213282,0.169912037,0.20039659,0.489781978,-0.841399366,18096,-9786,-28850,-556,-1600,-562,1073,-277,302,1
612258972,19983,-3233,-8457,-0.953677638,0.208156308,0.205842487,0.464049116,-0.854546443,8698,234,-23726,-1061,-1373,-374,1057,-265,279,1
612278972,15830,-1629,-7468,-0.950729912,0.223674139,0.205027037,0.440719072,-0.867854424,660,3476,-22850,-1144,-1163,-258,1029,-269,235,1
612298972,10796,-340,-7186,-0.944436809,0.249182371,0.203369735,0.411904907,-0.881263588,-9382,5942,-22522,-1229,-792,-183,1021,-289,199,1
612318972,8198,938,-6268,-0.940129973,0.267412685,0.200690277,0.381239623,-0.895666905,-14420,8408,-21296,-1308,-487,-187,995,-297,186,1
612338972,7005,2224,-6588,-0.937353401,0.280250501,0.196020765,0.3484789,-0.90974893,-16720,10832,-22354,-1397,-238,-154,981,-307,150,1
612358972,4346,2332,-7087,-0.936373876,0.287370918,0.19038577,0.31695901,-0.922360064,-22002,10866,-23588,-1339,-14,-109,989,-317,180,1
612378972,3388,2883,-7136,-0.937293435,0.288059672,0.184476952,0.288146876,-0.932814434,-23946,11776,-23708,-1214,233,-66,997,-331,148,1
612398972,3207,3474,-8036,-0.939804319,0.282824567,0.179567621,0.265355576,-0.940471539,-24390,12800,-25338,-944,428,-23,983,-345,179,1
612418972,4153,3106,-8978,-0.944152914,0.269722415,0.176533861,0.251301743,-0.9448462,-22638,11966,-26794,-559,689,18,999,-349,146,1
612438972,5798,2512,-9388,-0.950346142,0.250430441,0.171079011,0.245871488,-0.947207876,-19552,10602,-26980,-239,890,218,1011,-371,196,1
612458972,6504,7673,-10707,-0.965166582,0.201814963,0.150299479,0.251622802,-0.949374665,-18376,20780,-28768,57,1113,253,1017,-371,204,1
612478972,8227,6952,-6886,-0.970387012,0.174789807,0.149485582,0.264004916,-0.945977936,-15356,18782,-19494,554,1067,195,1045,-377,249,1
612498972,7622,993,-3988,-0.97449583,0.144175138,0.154806679,0.278071659,-0.941144558,-16698,7040,-12696,680,1185,-51,1035,-365,249,1
612518972,12377,-2261,-301,-0.977813784,0.121412244,0.152860321,0.27867556,-0.94127496,-7294,466,-4580,62,952,147,1059,-343,289,1
612538972,19493,-4526,6092,-0.980315512,0.116044505,0.140037687,0.265583325,-0.946940381,6856,-4478,8382,-582,329,515,1053,-363,278,1
612558972,25574,-993,11279,-0.981822021,0.106052293,0.13724542,0.245791137,-0.952696698,18970,2496,19082,-795,543,89,1075,-375,289,1
612578972,25701,1824,13073,-0.983654957,0.082940189,0.139365753,0.234978098,-0.955076488,19162,8200,23428,-391,1024,-62,1081,-379,348,1
612598972,23055,1248,17035,-0.983952777,0.073091572,0.142779013,0.234356839,-0.954806183,13866,7158,31672,38,419,-75,1073,-377,320,1
612618972,20050,1614,16979,-0.984203186,0.0749486,0.140137521,0.239127178,-0.9540317,7848,7806,31500,236,-92,184,1095,-373,326,1
612638972,26004,4086,32764,-0.980476923,0.122243933,0.133822651,0.236385688,-0.955579177,19858,12546,-4000,-99,-1917,310,1085,-369,341,1
612658972,15403,13177,-8635,-0.983263921,0.081428733,0.143199517,0.250466125,-0.950654844,-1430,31032,-19930,687,1603,-251,1077,-367,296,1
612678972,17694,-7196,-8440,-0.980677962,0.03406067,0.175629558,0.301806331,-0.930179121,3206,-8660,-17956,2354,1592,-1126,1077,-367,354,1
612698972,22687,-13478,8040,-0.975190558,0.052294753,0.201134304,0.345069215,-0.910057217,13390,-20406,14390,2019,-1124,-890,1093,-303,345,1
612718972,24879,-10475,-9396,-0.972847203,0.025035976,0.216921562,0.363112172,-0.899405958,17866,-13896,-19606,912,960,-545,1091,-255,357,1
612738972,16508,-2513,-7755,-0.971109426,0.017706027,0.226728421,0.355670828,-0.90064447,1224,2404,-16528,-354,-147,-425,1087,-253,360,1
612758972,24940,-11406,-4533,-0.969489364,0.020672595,0.232242432,0.341868524,-0.903961964,18098,-15268,-9734,-523,34,-169,1081,-233,354,1
612778972,26835,-1414,1535,-0.96924017,0.023856446,0.233288151,0.310146574,-0.915146554,21900,4746,2292,-1317,201,-2,1085,-245,332,1
612798972,18623,2817,-6711,-0.971376248,0.009034138,0.225396847,0.291059462,-0.923535297,5494,13286,-14056,-883,421,-48,1077,-265,342,1
612818972,17651,359,-6676,-0.972637732,-0.010334762,0.219329392,0.278628163,-0.92874182,3468,8062,-13348,-587,538,39,1093,-247,368,1
612838972,17601,296,-4316,-0.974517807,-0.026412891,0.208616682,0.268450506,-0.934008099,3302,7588,-7974,-461,532,241,1091,-251,360,1
612858972,16378,66,-4502,-0.975722898,-0.045679823,0.198575875,0.26234103,-0.937742123,804,6786,-7722,-280,607,245,1105,-287,391,1
612878972,15292,692,-3300,-0.976471711,-0.064117217,0.188764654,0.26060674,-0.940096105,-1386,7754,-4642,-72,620,191,1095,-293,379,1
612898972,12699,-44,-2918,-0.975860059,-0.078432137,0.185899503,0.261112478,-0.940411307,-6584,5968,-3264,74,601,182,1103,-283,422,1
612918972,8962,-1139,-1683,-0.975044057,-0.093099713,0.183207119,0.262084376,-0.94070638,-14030,3692,-316,95,611,173,1101,-295,444,1
612938972,8189,-3842,-525,-0.974518854,-0.102728043,0.180617395,0.261973081,-0.941230284,-15558,-1798,2314,51,411,172,1119,-301,439,1
612958972,9863,-4688,913,-0.974111106,-0.110429719,0.178133103,0.262449846,-0.941584731,-12196,-3570,5442,76,329,163,1119,-293,427,1
612978972,13335,-2984,1315,-0.974221207,-0.109793032,0.177849431,0.258279167,-0.942758704,-5242,-214,6426,-75,263,146,1123,-291,445,1
612998972,10189,109,2824,-0.972707571,-0.119215684,0.179875384,0.255034439,-0.943249494,-11498,6080,9552,-92,431,-2,1131,-305,449,1
613018972,7170,2010,4581,-0.97025509,-0.134126807,0.182450035,0.25697751,-0.942265607,-17458,9964,13556,123,618,-49,1115,-309,463,1
613038972,9301,-764,4235,-0.96721218,-0.152028935,0.184154558,0.267777294,-0.938904274,-13098,4470,13452,493,675,-70,1139,-293,492,1
613058972,18690,-5170,7312,-0.965063231,-0.167000914,0.182432002,0.292017711,-0.932102764,5750,-4396,20096,1070,443,-33,1129,-293,499,1
613078972,20597,-11595,7836,-0.963078633,-0.178383142,0.181638508,0.306220271,-0.927613087,9628,-17272,21518,650,378,-10,1137,-279,474,1
613098976,13086,-3463,7223,-0.965145448,-0.1612824,0.187265666,0.301128736,-0.928263549,-5364,-902,20322,-41,70,-52,1117,-275,502,1
613118976,11533,2053,3768,-0.965017388,-0.155687982,0.192859023,0.303904386,-0.926261673,-8560,10384,12636,144,-242,-180,1107,-259,503,1
613138976,14904,1588,3879,-0.968642194,-0.13703908,0.189101654,0.31662,-0.92278666,-1830,9600,12618,639,-419,-215,1119,-245,492,1
613158976,26442,-12067,4883,-0.971278783,-0.122302348,0.185631426,0.331935655,-0.91802744,21048,-18086,13778,713,-731,118,1111,-261,465,1
613178976,32421,-19281,5465,-0.975287089,-0.083390104,0.187158661,0.320287718,-0.921927841,-32668,-32464,13672,-452,-1514,59,1101,-249,428,1
613198976,32731,-6929,3897,-0.976831645,-0.019986659,0.197541696,0.290031843,-0.929700198,-32122,-7420,8484,-1239,-2364,-285,1095,-257,430,1
613218976,30756,-4832,-1674,-0.973350581,0.047077462,0.211225013,0.264176514,-0.934467629,29576,-2788,-4856,-1009,-2553,-501,1083,-257,334,1
613238976,31333,-7413,-10226,-0.966763072,0.103928236,0.221904956,0.248849891,-0.93615775,30954,-7610,-23834,-537,-2229,-414,1053,-273,311,1
613258976,30095,-9018,-17154,-0.959504029,0.148686057,0.228874889,0.235682694,-0.938000569,28730,-10600,26368,-448,-1755,-282,1035,-259,258,1
613278976,20950,-6006,-14030,-0.950263645,0.193960195,0.234474198,0.201901983,-0.944578702,10738,-4396,31134,-1288,-1589,-398,985,-255,202,1
613298976,16062,641,-10113,-0.948746022,0.208856098,0.228902183,0.16355993,-0.953925276,1216,8902,-27716,-1701,-1060,-322,991,-277,181,1
613318976,13442,1501,-9180,-0.94946954,0.211220307,0.223679337,0.127480358,-0.96067021,-4034,10500,-25946,-1579,-579,-384,973,-281,162,1
613338976,9446,3545,-8907,-0.955711156,0.196396284,0.209250385,0.099689811,-0.966918893,-12202,14250,-24970,-1301,10,-91,961,-291,179,1
613358976,5128,4092,-8675,-0.95777164,0.192867007,0.201420176,0.075831888,-0.970010111,-21146,14740,-23660,-974,389,184,965,-317,126,1
613378976,4187,2691,-9164,-0.961536076,0.181915727,0.19295569,0.051142825,-0.97321442,-23144,11666,-24282,-1007,691,213,955,-333,170,1
613398976,2368,1405,-9512,-0.966896178,0.163381448,0.181974308,0.026660655,-0.976294197,-26958,8740,-24372,-1012,996,332,983,-341,161,1
613418976,4125,5172,-10562,-0.972528696,0.143434508,0.167627473,0.002492115,-0.979186909,-23630,15812,-25818,-1013,1032,490,991,-385,185,1
613438976,6965,6692,-9791,-0.982047368,0.105012892,0.137124121,-0.014352769,-0.983919181,-18100,18380,-23740,-837,836,543,991,-395,207,1
613458976,7216,4488,-7209,-0.984315768,0.089969527,0.130183872,-0.021098346,-0.984497521,-17830,13232,-17364,-249,675,319,1037,-419,216,1
613478976,8315,-1502,-3317,-0.986300619,0.075804602,0.123151038,-0.035982197,-0.984847281,-15698,1022,-9114,-577,676,301,1017,-419,237,1
613498976,11914,-2014,3851,-0.988114335,0.063992195,0.115506241,-0.066272657,-0.984413253,-8560,-250,5610,-1199,643,293,1015,-425,261,1
613518976,18173,526,8226,-0.98933534,0.062599804,0.105181851,-0.097360451,-0.982967813,3910,4616,14760,-1181,649,263,1017,-435,262,1
613538976,25186,1202,10014,-0.990011547,0.049331915,0.104870785,-0.124780511,-0.97977818,17920,5834,18418,-1071,675,20,1047,-467,290,1
613558976,21680,1496,10374,-0.989581844,0.037507592,0.113008139,-0.146681456,-0.975812707,10924,6686,19522,-841,593,-300,1041,-465,320,1
613578976,15285,5135,15462,-0.989184201,0.032166433,0.118626593,-0.165034041,-0.972401444,-1846,14146,29868,-703,315,-185,1047,-461,325,1
613598976,9144,4920,28822,-0.987082822,0.087820088,0.108810647,-0.188809568,-0.969152037,-14088,13400,-10746,-946,-2152,410,1033,-467,296,1
613618976,4893,14009,-6424,-0.993893735,0.028464071,0.069217914,-0.196196135,-0.971272068,-22724,31136,-14154,-306,1987,594,1017,-479,272,1
613638976,24060,4468,-7748,-0.992486259,0.005723979,0.091114222,-0.151792387,-0.977463895,15576,11916,-15666,1881,789,-797,1031,-479,315,1
613658976,22492,-9517,-9505,-0.990489889,-0.013206417,0.109097288,-0.088433493,-0.983268872,12486,-15462,-18540,2629,529,-684,1041,-441,327,1
613678976,21881,-18329,5064,-0.987065522,-0.031613247,0.133688195,-0.050879059,-0.983011918,11400,-32288,11176,1543,580,-972,1051,-385,352,1
613698976,21141,-13192,-2259,-0.984043099,-0.044101918,0.150910609,-0.050000824,-0.980513522,10030,-21458,-3072,50,526,-634,1043,-361,356,1
613718976,27222,-7723,3368,-0.981746802,-0.034893053,0.167889861,-0.073756052,-0.976323176,22266,-9970,7884,-955,-205,-581,1053,-345,353,1
613738976,25104,-1143,2067,-0.98050097,-0.029589558,0.176270404,-0.110986445,-0.97136219,18064,3462,5114,-1487,61,-219,1055,-341,371,1
613758976,23035,10566,-5031,-0.97918641,-0.030466372,0.183682489,-0.127048705,-0.968147852,13980,27118,-9066,-623,169,-213,1043,-359,363,1
613778976,16938,-804,-11388,-0.977131266,-0.06097764,0.187973237,-0.117563765,-0.969047913,1854,4630,-21278,304,592,-265,1071,-331,360,1
613798976,17536,-4346,-11487,-0.975419199,-0.077046277,0.188915263,-0.112804264,-0.968795359,3094,-2536,-20440,238,654,11,1061,-333,382,1
613818976,15370,-3009,-10748,-0.973109901,-0.109790081,0.185688,-0.114444386,-0.969813593,-1192,32,-18368,-108,806,210,1057,-337,398,1
613838976,13144,-1170,-9169,-0.969337687,-0.146817423,0.179230874,-0.119674847,-0.970457144,-5530,3588,-13954,-234,1059,258,1085,-343,426,1
613858976,13237,-2471,-5114,-0.964351749,-0.178076984,0.175926136,-0.125411808,-0.969945252,-5172,796,-4558,-199,1150,239,1089,-365,437,1
613878976,16304,-4743,-109,-0.96133551,-0.19311397,0.175604154,-0.136773162,-0.968267338,1114,-3868,6300,-344,952,294,1101,-363,465,1
613898976,17488,-5238,4352,-0.961644642,-0.190871298,0.176575145,-0.161167435,-0.964392245,3520,-4838,15362,-825,590,361,1099,-365,467,1
613918976,15934,-1329,7448,-0.964213198,-0.179155145,0.174785955,-0.189634932,-0.959467191,386,3106,21336,-978,433,266,1091,-381,507,1
613938976,13333,2873,7211,-0.967968877,-0.166744597,0.16651177,-0.2104716,-0.956668356,-4894,11482,20468,-671,365,157,1085,-391,509,1
613958976,11751,4676,6042,-0.971801169,-0.155151138,0.154708312,-0.216739777,-0.957124628,-8184,14838,17700,-95,234,20,1083,-381,510,1
613978976,11706,4453,4449,-0.974569306,-0.149874557,0.142173185,-0.207716584,-0.961086396,-8386,13988,14252,514,282,-53,1097,-389,511,1
613998976,12025,1726,3318,-0.972557727,-0.162190111,0.141429823,-0.185317233,-0.965573229,-7828,8070,11958,970,396,-54,1113,-383,518,1
614018976,12423,-1876,2396,-0.970748121,-0.175338391,0.13826404,-0.159364471,-0.970745061,-6970,764,10538,1127,401,7,1097,-361,522,1
614038976,12252,-4817,1810,-0.970058512,-0.177168801,0.140813689,-0.136054769,-0.973932423,-7266,-5264,9728,1071,324,59,1089,-353,545,1
614058976,12371,-5212,-41,-0.96848009,-0.181821901,0.145460267,-0.118082436,-0.975557152,-7004,-5920,6048,821,311,39,1093,-341,551,1
614078976,12147,-4237,1062,-0.966944095,-0.192209888,0.142282339,-0.103150491,-0.977771092,-7394,-3828,8420,675,351,73,1073,-341,543,1
614098976,13613,-4104,1506,-0.967421703,-0.188643754,0.143693268,-0.094498836,-0.97838852,-4442,-3664,9474,470,164,111,1089,-339,549,1
614118976,16475,-4164,3159,-0.969585836,-0.176563695,0.144650503,-0.088978417,-0.978740908,1226,-3710,12444,349,-99,100,1105,-333,538,1
614138976,25139,-8877,3352,-0.97196416,-0.166010235,0.141427947,-0.087456757,-0.979359033,18424,-13134,12142,134,-443,182,1079,-337,567,1
614158976,28640,-10146,5279,-0.976054212,-0.140334759,0.141718728,-0.096404983,-0.978489209,25290,-15662,15160,-312,-1002,112,1091,-339,506,1
614178976,29219,-6004,3743,-0.980404884,-0.099096134,0.14767233,-0.110143155,-0.976230934,26296,-7186,10746,-540,-1610,-104,1075,-337,491,1
614198976,31681,-4350,-1417,-0.983345367,-0.045081988,0.155054158,-0.127363125,-0.972847352,31108,-3636,-1330,-681,-2097,-180,1081,-315,450,1
614218976,29224,-4551,-7853,-0.983627327,0.006014906,0.161029782,-0.143685564,-0.969692379,26194,-3844,-15886,-631,-1983,-163,1067,-339,432,1
614238976,25008,-5352,-12801,-0.981766971,0.049430003,0.165845244,-0.156862048,-0.966861973,17828,-5294,-27210,-492,-1686,-143,1051,-335,357,1
614258976,22954,-5330,-12851,-0.977969646,0.0865997,0.173631857,-0.172247291,-0.962859007,13846,-4998,-28532,-571,-1417,-293,1051,-325,311,1
614278976,19141,-5913,-11111,-0.973371493,0.117793357,0.181859845,-0.194784336,-0.957142163,6376,-5898,-26076,-856,-1118,-361,1039,-343,296,1
614298976,14400,-1612,-10595,-0.972987723,0.120049819,0.184479525,-0.223074593,-0.951305218,-2990,2828,-25786,-1247,-688,-262,1019,-359,260,1
614318976,13427,89,-7980,-0.973474033,0.120465992,0.181589123,-0.255009435,-0.943829628,-4956,6240,-20486,-1394,-479,-184,1013,-347,251,1
614338976,8830,1075,-7823,-0.972228214,0.129968902,0.179790191,-0.286225665,-0.934330679,-14222,8012,-19888,-1270,-124,-27,1023,-367,247,1
614358976,5022,1912,-7285,-0.972891212,0.132039636,0.174691479,-0.313878212,-0.92645018,-21844,9520,-18892,-1137,140,122,1029,-371,260,1
614378976,3457,1957,-7228,-0.974493595,0.126975607,0.169376841,-0.33857956,-0.918775234,-25026,9436,-18614,-1021,410,147,1003,-397,240,1
614398976,3956,2069,-7490,-0.976439461,0.11955763,0.163043423,-0.364817848,-0.909786062,-24096,9456,-18890,-1098,516,186,1021,-425,286,1
614418976,6756,2610,-7385,-0.978689851,0.110891445,0.155178838,-0.389403878,-0.900937455,-18568,10284,-18400,-1041,548,264,1025,-423,277,1
614438976,7924,2068,-8859,-0.981109839,0.100146405,0.146460287,-0.40526926,-0.895331385,-16308,8916,-21000,-667,565,349,1033,-443,267,1
614458976,9016,3288,-10158,-0.986398337,0.06002767,0.133138208,-0.411828687,-0.895039324,-14194,11224,-23028,-342,786,199,1033,-449,293,1
614478976,8994,3580,-8356,-0.987163741,0.036309591,0.13305264,-0.423376534,-0.888951734,-14380,11508,-17886,-472,1069,44,1027,-459,305,1
614498976,13458,299,-2331,-0.988470437,0.01478086,0.127741159,-0.438200416,-0.882819543,-5456,4916,-5328,-635,755,85,1051,-463,359,1
614518976,13887,-19,1629,-0.989150256,0.015140474,0.121486526,-0.454106783,-0.875446485,-4634,4052,2868,-645,217,164,1057,-465,355,1
614538976,13351,410,11057,-0.989585603,0.035680247,0.114322045,-0.479747796,-0.862785982,-5732,4670,21552,-1027,57,204,1057,-469,345,1
614558976,22477,239,12404,-0.990201384,0.025818706,0.110980484,-0.50652888,-0.847763963,12494,4108,23968,-1202,557,167,1061,-473,367,1
614578976,23334,2163,13492,-0.990666894,0.010776084,0.108736118,-0.525987351,-0.836151967,14198,7880,26636,-872,730,145,1057,-497,369,1
614598976,24610,7146,20805,-0.990322508,0.019454878,0.110735735,-0.540958552,-0.826273361,16764,17912,-24562,-678,-262,-23,1063,-497,395,1
614618976,-513,14063,5971,-0.993006412,0.040216429,0.076343318,-0.559491459,-0.817822689,32032,31514,11008,-733,-276,342,1041,-491,377,1
614638976,19718,17588,1,-0.99281089,0.005206101,0.087060381,-0.524301663,-0.839693226,6880,-27510,-150,1740,1300,-336,1055,-495,398,1
614658976,17867,-10641,-21292,-0.989525281,-0.034330616,0.112819627,-0.44720117,-0.880134473,3232,-17586,24152,3568,1272,-1043,1067,-445,403,1
614678976,22203,-11701,-4909,-0.987688797,-0.044874284,0.124433974,-0.395882139,-0.902789632,12014,-19334,-8322,2304,174,-503,1067,-409,431,1
614698976,22353,-27266,-6495,-0.983875794,-0.065795431,0.143281231,-0.381440299,-0.906152138,12454,15682,-10826,597,798,-731,1065,-403,404,1
614718976,21424,-10392,-4287,-0.982016595,-0.065428788,0.156043447,-0.410801277,-0.891230334,10658,-15692,-6424,-1322,202,-357,1083,-365,420,1
614738976,24368,-448,-444,-0.981254421,-0.060375273,0.163184933,-0.451562632,-0.870157398,16562,4426,1106,-1832,108,-95,1069,-377,415,1
614758976,28086,2874,3671,-0.980691984,-0.058290124,0.167121028,-0.490544019,-0.848036947,24016,11200,9268,-1779,236,23,1085,-367,448,1
614778976,20463,8050,313,-0.979145821,-0.064323042,0.174066187,-0.51193993,-0.834036345,8832,21774,2738,-1006,444,-145,1079,-375,471,1
614798976,17535,835,-4612,-0.978150124,-0.0810971,0.172519672,-0.515817704,-0.832046548,3038,7504,-6742,-180,527,-117,1073,-373,470,1
614818976,16240,846,-6789,-0.977855178,-0.097927634,0.165507489,-0.514225664,-0.834638426,444,7288,-10662,101,334,99,1085,-371,467,1
614838976,13667,406,-4964,-0.977683742,-0.111148918,0.157450369,-0.513277877,-0.836700613,-4704,6126,-6518,91,264,167,1077,-369,496,1
614858976,12580,662,-2634,-0.97726837,-0.116271028,0.155187242,-0.512455398,-0.837313149,-6872,6388,-1454,104,224,152,1091,-375,482,1
614878976,10729,641,-1931,-0.975953436,-0.127619656,0.154131856,-0.508218668,-0.840027887,-10526,6312,318,256,452,83,1099,-377,471,1
614898976,9937,759,-3004,-0.97395945,-0.142114716,0.153638511,-0.498104032,-0.846100653,-12048,6530,-1350,526,540,21,1083,-375,507,1
614918976,12566,-3208,-2529,-0.971698662,-0.15586983,0.154755723,-0.482974822,-0.854719121,-6732,-1452,16,750,428,20,1095,-373,544,1
614938976,13729,-7379,850,-0.970133742,-0.157839824,0.162674704,-0.473321432,-0.858708758,-4352,-9768,7068,513,272,65,1091,-379,537,1
614958976,13498,-8177,3339,-0.968795642,-0.154246951,0.174212912,-0.473922387,-0.856232116,-4756,-11026,12066,41,292,41,1089,-375,557,1
614978976,12099,-2274,3818,-0.966808302,-0.161719451,0.177806701,-0.481025744,-0.851368614,-7490,1246,12936,-317,396,-20,1075,-371,521,1
614998976,7040,4622,2202,-0.964275805,-0.171165306,0.182656591,-0.481534252,-0.85010686,-17520,15194,10010,-29,423,-119,1089,-351,555,1
615018980,9228,4413,2746,-0.961571332,-0.184709925,0.183481511,-0.467898127,-0.857485015,-13060,14804,11546,662,465,-82,1095,-365,577,1
615038980,20768,-7143,8199,-0.959812749,-0.198980872,0.177201832,-0.448728096,-0.868881632,10076,-8512,22922,988,441,137,1097,-349,580,1
615058980,17053,-9920,4917,-0.959563611,-0.195843736,0.182391332,-0.443170985,-0.870753014,2686,-14226,16654,407,334,199,1085,-345,586,1
615078980,15250,-961,5037,-0.96365032,-0.176944569,0.180602512,-0.450496938,-0.867412949,-970,4060,16332,-175,-146,63,1085,-335,574,1
615098980,15288,932,4660,-0.967311036,-0.15659637,0.17993466,-0.450564044,-0.867431195,-1014,7938,14876,103,-307,-185,1087,-339,574,1
615118980,23892,-7689,6118,-0.969536256,-0.138496771,0.182957135,-0.444800753,-0.869700054,16008,-9418,16776,278,-785,-93,1085,-339,588,1
615138980,29447,-14236,7006,-0.973669793,-0.099088991,0.187283642,-0.452920403,-0.864583062,26972,-22370,17272,-356,-1551,-60,1087,-321,569,1
615158980,32764,-7815,5038,-0.976741629,-0.042135442,0.193885391,-0.471183017,-0.853391249,-32044,-9314,11480,-839,-2182,-135,1069,-321,527,1
615178980,32119,-2361,-1801,-0.975495083,0.021125939,0.204757646,-0.487245424,-0.841898058,32238,1946,-4262,-755,-2447,-364,1075,-329,466,1
615198980,30128,-5761,-8936,-0.970805721,0.075147962,0.215242247,-0.495958064,-0.834248457,28418,-4518,-20314,-394,-2138,-379,1055,-331,388,1
615218980,26125,-6248,-13925,-0.964516237,0.119999003,0.224060392,-0.504804194,-0.826724593,20626,-5212,-31770,-380,-1770,-335,1063,-321,373,1
615238980,21384,-6774,-13042,-0.956632232,0.16331677,0.231309123,-0.521763567,-0.814252485,11402,-6034,-31426,-754,-1626,-345,1043,-321,325,1
615258980,15312,-1989,-13903,-0.949897265,0.196832489,0.233446616,-0.548878198,-0.795651425,-520,3604,31292,-1249,-1096,-263,1031,-315,300,1
615278980,11822,251,-8100,-0.950007856,0.203743121,0.22853174,-0.573251963,-0.780806521,-7294,8086,-23560,-1286,-857,-230,1015,-331,276,1
615298980,10104,-703,-7881,-0.946330661,0.220120115,0.22725504,-0.598549321,-0.761010289,-10826,5980,-22958,-1224,-367,-164,1017,-337,271,1
615318980,6210,1373,-8643,-0.946224444,0.226661725,0.220975852,-0.621463023,-0.744256215,-18594,9930,-24710,-1131,12,55,1003,-353,235,1
615338980,5332,2179,-9093,-0.948807364,0.223376436,0.212846997,-0.642681383,-0.728468437,-20436,11280,-25504,-1072,406,144,1019,-363,276,1
615358980,5359,2317,-8754,-0.951878835,0.215099534,0.20721528,-0.660260502,-0.714202026,-20480,11376,-24554,-898,571,86,1019,-383,270,1
615378980,7000,1015,-8792,-0.956324583,0.200381171,0.201198559,-0.679390753,-0.697942425,-17346,8580,-24146,-999,859,92,1009,-383,283,1
615398980,4138,3435,-10416,-0.961978855,0.182396075,0.190353814,-0.69972921,-0.680598551,-23262,13072,-26800,-1097,1007,291,1023,-379,285,1
615418980,4714,6656,-9226,-0.967888229,0.162163166,0.177762184,-0.713161014,-0.670012223,-22296,19106,-23762,-717,1007,452,1051,-413,301,1
615438980,6828,4898,-4304,-0.972342873,0.140682396,0.171113721,-0.717129288,-0.667493956,-18212,15376,-13216,-176,950,304,1053,-425,337,1
615458980,10739,-101,-1441,-0.975607846,0.120086906,0.167747745,-0.722890977,-0.662134597,-10498,5268,-6816,-286,928,161,1037,-403,366,1
615478980,16818,375,3033,-0.979159608,0.109225359,0.153101059,-0.736932179,-0.649962151,1562,5918,2562,-722,680,362,1039,-437,402,1
615498980,23394,-1078,10852,-0.982061498,0.096646216,0.142183214,-0.758249437,-0.627634132,14596,2486,18546,-1242,727,383,1059,-437,428,1
615518980,24316,800,14765,-0.983043173,0.093639817,0.137521843,-0.778382933,-0.603817591,16410,6092,26466,-1231,316,139,1063,-441,433,1
615538980,23432,2521,25134,-0.981051333,0.114164701,0.136498425,-0.797858603,-0.578132311,14704,9500,-19002,-1259,-650,-25,1063,-451,433,1
615558980,-2489,11426,4195,-0.985458262,0.090485221,0.120957193,-0.824033644,-0.544068741,28242,26806,5446,-1749,1222,522,1035,-459,399,1
615578980,16538,20112,-3039,-0.988782948,0.03247964,0.121306621,-0.814977629,-0.557251351,642,-21346,-7116,699,2314,92,1057,-467,441,1
615598980,17632,-1772,-9937,-0.987137944,-0.015596285,0.138782194,-0.773396581,-0.610673562,2886,1026,-19796,2715,1040,-650,1063,-451,496,1
615618980,28183,-8012,-4045,-0.985284965,-0.043248251,0.14321683,-0.73796593,-0.651153281,24042,-11344,-6638,2234,848,-187,1065,-425,515,1
615638980,27530,-18619,5309,-0.981169347,-0.066061297,0.161136609,-0.718725879,-0.668149093,22894,-31980,12794,1042,802,-720,1057,-435,555,1
615658980,31401,-12318,7230,-0.978217436,-0.069478009,0.177090482,-0.719508471,-0.663347559,30744,-18866,16736,-162,191,-566,1081,-393,569,1
615678980,28468,-1111,9961,-0.975973975,-0.059085855,0.193129784,-0.732222665,-0.644913591,24948,4068,21864,-897,-240,-521,1069,-379,552,1
615698980,21641,9932,4690,-0.974900186,-0.055763103,0.199657782,-0.745787095,-0.627283962,11330,26362,11210,-867,60,-140,1071,-367,570,1
615718980,15432,8044,-10607,-0.975188609,-0.078427913,0.189993296,-0.735550646,-0.64214492,-1026,22790,-19098,648,257,-230,1073,-383,561,1
615738980,16280,-1987,-16003,-0.973055605,-0.094802577,0.192926281,-0.713591849,-0.665392565,660,2308,-28888,1334,447,-171,1083,-369,576,1
615758980,15741,-8265,-15632,-0.971236834,-0.115432436,0.190538817,-0.700961109,-0.679326363,-350,-10326,-27480,819,720,79,1087,-353,590,1
615778980,14704,-8221,-11409,-0.96632278,-0.148558527,0.193361383,-0.699369743,-0.680722721,-2364,-10376,-18378,50,847,244,1073,-371,599,1
615798980,13669,-6706,-7008,-0.961183216,-0.173598522,0.197021417,-0.707231592,-0.67125226,-4254,-7208,-8568,-483,858,273,1075,-365,633,1
615818980,12969,-4354,-4083,-0.957657678,-0.189593846,0.198488001,-0.720441557,-0.656394709,-5498,-2354,-2036,-750,734,296,1109,-361,618,1
615838980,13071,-1274,-389,-0.957678206,-0.192913629,0.195418304,-0.739562683,-0.635974981,-5196,3910,5706,-1025,575,293,1079,-391,647,1
615858980,14866,-1368,3889,-0.960038174,-0.183244558,0.19293712,-0.760893639,-0.611069815,-1638,3634,14208,-1154,386,308,1095,-381,645,1
615878980,14334,-425,6870,-0.96357514,-0.16865723,0.188973835,-0.781198964,-0.586400913,-2786,5428,19832,-1090,346,295,1097,-381,646,1
615898980,12810,4262,6778,-0.967016835,-0.161227562,0.177089201,-0.795320673,-0.570799591,-5898,14698,19398,-661,553,172,1093,-395,702,1
615918980,13172,5028,6511,-0.969869142,-0.155765081,0.166279045,-0.801821303,-0.565036435,-5270,15914,18646,-196,497,1,1077,-395,691,1
615938980,11401,3555,7978,-0.97227831,-0.147811862,0.159093456,-0.800496312,-0.568809617,-8896,12648,21442,314,458,-125,1075,-381,722,1
615958980,12701,1431,6975,-0.974195842,-0.139987744,0.154967527,-0.792413477,-0.581225717,-6398,8136,19116,738,309,-148,1067,-393,737,1
615978980,12363,-691,4594,-0.974872112,-0.135915615,0.15381269,-0.778118983,-0.60020072,-7148,3720,14112,1086,268,-148,1083,-369,744,1
615998980,11542,-3524,2352,-0.973697325,-0.142348859,0.155172669,-0.762666618,-0.619231777,-8830,-1986,9372,1028,128,-133,1075,-365,736,1
616018980,12137,-3933,1581,-0.973340414,-0.142389927,0.157303655,-0.748686649,-0.63543025,-7626,-2736,7830,896,-120,-147,1077,-361,740,1
616038980,12982,-3254,3529,-0.975199834,-0.125389058,0.161270987,-0.738518044,-0.646425147,-5956,-1332,11530,712,-339,-85,1067,-377,744,1
616058980,21765,-6322,2796,-0.97708044,-0.111538623,0.160111772,-0.7285851,-0.65774403,11506,-7420,9252,663,-660,38,1091,-371,734,1
616078980,29619,-13384,4235,-0.980130322,-0.081295015,0.160209393,-0.72606869,-0.660443313,27110,-21542,11142,199,-1259,48,1093,-373,728,1
616098980,32764,-12243,4934,-0.982669495,-0.024818705,0.164383792,-0.737299718,-0.646851437,-32238,-19122,10708,-674,-2195,-60,1089,-397,685,1
616118980,32254,-4420,-160,-0.980532737,0.042380502,0.174855043,-0.754277943,-0.624326119,32334,-3134,-1672,-1092,-2563,-365,1077,-381,625,1
616138980,29101,-1003,-7166,-0.974214735,0.105885934,0.184371896,-0.766714422,-0.606307553,26242,4004,-17772,-808,-2459,-381,1071,-387,567,1
616158980,27003,667,-12285,-0.965900309,0.158494174,0.191560701,-0.772624649,-0.596698344,22330,7576,-29744,-365,-2103,-281,1069,-375,536,1
616178980,26950,-2717,-12849,-0.956408074,0.199791905,0.201257703,-0.773364028,-0.592611138,22542,1118,-32234,-26,-1709,-348,1059,-367,466,1
616198980,23451,-5634,-13013,-0.946959922,0.234354552,0.209239,-0.78182512,-0.578691337,15858,-4460,31836,-523,-1335,-392,1063,-381,466,1
616218980,17407,494,-8517,-0.945603797,0.245561566,0.203866924,-0.799470833,-0.557205949,4024,7792,-25684,-1212,-992,-256,1061,-371,381,1
616238980,12843,1280,-7910,-0.947262982,0.246082967,0.195407029,-0.815641403,-0.53664507,-5144,9128,-24544,-1164,-620,-173,1035,-375,407,1
616258980,8569,1233,-7454,-0.944963362,0.256840073,0.191056095,-0.829255642,-0.51579232,-13848,8690,-23312,-960,-228,-18,1055,-397,387,1
616278980,6050,1664,-7344,-0.946222689,0.256871944,0.184430116,-0.840407241,-0.499894693,-18912,9336,-23104,-781,178,124,1051,-405,383,1
616298980,5147,1760,-7112,-0.949391529,0.250553489,0.176382241,-0.851777393,-0.483335264,-20822,9270,-22432,-820,449,177,1057,-409,396,1
616318980,4765,1823,-7799,-0.954247629,0.237047976,0.168532026,-0.863282876,-0.46566068,-21744,9142,-23364,-861,749,168,1059,-423,421,1
616338980,6510,1249,-7658,-0.959345371,0.220918415,0.16048108,-0.871639289,-0.452544661,-18426,7734,-22550,-638,816,243,1047,-429,433,1
616358980,8144,2321,-7625,-0.964135505,0.202408513,0.15576797,-0.875414524,-0.446961911,-15312,9724,-21880,-257,842,198,1075,-447,478,1
616378980,8318,2766,-8094,-0.968906339,0.175550183,0.158422937,-0.873217639,-0.45044593,-15120,10702,-21940,230,1108,-8,1055,-431,467,1
616398980,8812,1755,-6289,-0.973166179,0.146795077,0.160870069,-0.872723971,-0.450482393,-14274,8758,-17382,76,1210,-28,1077,-433,525,1
616418980,9635,-473,-2423,-0.976670936,0.122344865,0.159281987,-0.880440742,-0.435741173,-12746,4250,-8850,-630,1140,42,1075,-427,511,1
616438980,12323,-703,1780,-0.980201256,0.102081282,0.151424182,-0.892587524,-0.413569266,-7484,3536,220,-1011,1017,271,1087,-439,568,1
616458980,16538,-664,6358,-0.982842909,0.094721077,0.138062741,-0.905647831,-0.389216546,848,3278,9882,-1058,815,390,1089,-461,584,1
616478980,19937,1589,9216,-0.984799027,0.088032683,0.127963906,-0.918449253,-0.361942673,7594,7358,15554,-1205,458,368,1075,-463,600,1
616498980,19501,1621,8290,-0.986424915,0.078980133,0.120569183,-0.928623505,-0.337782577,6668,7182,13998,-1034,523,281,1091,-449,613,1
616518980,19522,1226,9263,-0.986951644,0.080725994,0.114780838,-0.935858866,-0.319404641,6696,6202,15882,-768,40,241,1085,-473,630,1
616538980,18399,2311,8855,-0.987153448,0.088415837,0.107651923,-0.943197105,-0.300067641,4444,8140,14814,-811,-206,288,1061,-487,633,1
616558980,12486,5613,21166,-0.982364941,0.137085121,0.101479244,-0.952188497,-0.272702241,-7246,14546,-27676,-1139,-1858,187,1059,-481,608,1
616578980,16538,18193,1816,-0.986805227,0.102255715,0.098499387,-0.95617165,-0.259847665,726,-25930,290,-509,1504,125,1063,-491,633,1
616598980,16628,1601,-12905,-0.986490399,0.067022605,0.126938274,-0.942046314,-0.296216788,904,7352,-27984,1718,1267,-955,1051,-479,664,1
616618980,24266,1373,-4463,-0.985134499,0.047371997,0.144745887,-0.919649858,-0.352514271,16216,7476,-10448,2545,480,-522,1061,-453,673,1
616638980,23667,-15177,494,-0.982309077,0.023726536,0.167913166,-0.900183629,-0.390352065,15122,-24876,228,1800,708,-816,1045,-453,648,1
616658980,20310,-16101,-5263,-0.97916938,-0.001290683,0.186491329,-0.890458765,-0.403861718,8524,-26126,-10476,718,928,-683,1055,-431,685,1
616678980,27693,-8589,-469,-0.97662681,0.003477631,0.199902649,-0.896217797,-0.384673925,23378,-10672,-1050,-760,-25,-475,1047,-421,704,1
616698980,27500,-2769,6389,-0.975501873,0.016252272,0.20508208,-0.910745133,-0.346347602,23020,1138,12258,-1616,-173,-153,1061,-409,709,1
616718980,20522,5976,1404,-0.974654034,0.020504355,0.208726041,-0.923233267,-0.309446521,9092,18744,2148,-1529,173,-106,1051,-405,703,1
616738980,16447,6259,-8024,-0.976225913,0.002383387,0.202383844,-0.926248368,-0.305058435,1008,19570,-16538,-265,315,-270,1057,-379,698,1
616758980,15400,853,-10303,-0.976509694,-0.024166122,0.200286162,-0.922424793,-0.318570413,-1162,8428,-20344,478,355,-107,1051,-377,734,1
616778980,16256,-4120,-9917,-0.975362226,-0.049462929,0.20072959,-0.918708174,-0.328682998,518,-1740,-18668,375,420,79,1053,-385,744,1
616798980,14413,-3654,-6825,-0.974162975,-0.071012812,0.199333169,-0.920088468,-0.325376097,-3134,-858,-11664,-171,521,182,1055,-387,726,1
616818980,13520,-1532,-3094,-0.973580014,-0.086286614,0.194530289,-0.92427424,-0.31539608,-4870,3352,-3484,-402,582,193,1057,-389,756,1
616838980,13361,-1833,-2226,-0.972641386,-0.100625325,0.191991251,-0.925807765,-0.312420072,-5148,2642,-1216,-96,562,114,1061,-403,789,1
616858980,14096,-3334,-384,-0.971407045,-0.10962023,0.19337643,-0.926298209,-0.310286671,-3640,-408,2906,-21,507,66,1075,-393,771,1
616878980,15538,-5341,2005,-0.970025197,-0.11202538,0.198776726,-0.927552121,-0.303077387,-712,-4340,7906,-194,453,38,1053,-401,802,1
616898980,14940,-5076,4162,-0.969652988,-0.105530892,0.204359502,-0.930908257,-0.289027119,-1880,-3622,12130,-457,289,53,1043,-417,793,1
616918980,13641,350,4603,-0.971516702,-0.096029021,0.200332834,-0.93595265,-0.275424073,-4470,7418,12752,-444,230,35,1057,-407,814,1
616938984,10904,6734,3200,-0.975431576,-0.089577749,0.183106447,-0.940766908,-0.27060435,-10006,20060,9632,-127,163,-5,1045,-411,790,1
616958984,11896,6926,3344,-0.978626817,-0.089936212,0.165000493,-0.94057364,-0.282566465,-8142,19834,9928,576,302,-5,1049,-413,824,1
616978984,14381,402,3237,-0.979621187,-0.092570815,0.157030159,-0.934366034,-0.306196945,-3290,6100,9818,1106,332,68,1051,-397,814,1
616998984,15325,-5779,2290,-0.97865572,-0.096210543,0.160763179,-0.925878229,-0.328955458,-1432,-6508,7964,1086,288,53,1049,-411,831,1
617018984,12282,-4397,-550,-0.977630794,-0.104601676,0.161217462,-0.919692785,-0.345293948,-7478,-3536,2330,755,247,-25,1011,-411,818,1
617038984,9136,-2074,-3268,-0.976352209,-0.11301497,0.163480454,-0.914528577,-0.357811917,-13724,1184,-2836,583,274,-88,1031,-421,842,1
617058984,9098,-2081,-3400,-0.974866765,-0.122993473,0.164686635,-0.909014592,-0.37081169,-13756,1210,-2768,615,336,-51,1023,-399,845,1
617078984,14030,-5520,-2994,-0.972880788,-0.133606391,0.167961058,-0.902420096,-0.385066705,-3866,-5754,-1670,681,270,91,1029,-407,857,1
617098984,18643,-7705,-1954,-0.972042121,-0.139182039,0.168075821,-0.898221884,-0.394577252,5400,-10140,692,512,217,264,1013,-405,855,1
617118984,23100,-10699,-1065,-0.973102715,-0.139889546,0.161125155,-0.900600594,-0.392044568,14312,-16142,2452,-42,60,364,995,-419,860,1
617138984,25803,-7452,2553,-0.974812731,-0.12863858,0.160476778,-0.908105597,-0.374808326,19658,-9670,9324,-702,-331,201,1019,-419,848,1
617158984,29397,-7708,5186,-0.977508001,-0.098048039,0.166586611,-0.91774331,-0.348143727,26748,-9984,13594,-1125,-1062,-40,1021,-425,832,1
617178984,30019,-4886,4313,-0.979991088,-0.049409391,0.174295673,-0.928710539,-0.313895233,27896,-4086,10272,-1430,-1741,-129,1019,-439,807,1
617198984,28409,866,541,-0.980153037,0.007688116,0.181185558,-0.938448766,-0.27948818,24664,7642,862,-1409,-2078,-177,1039,-419,759,1
617218984,24627,2869,-3100,-0.977766633,0.060894661,0.18526211,-0.944356941,-0.256486611,17188,11778,-8174,-910,-2008,-128,1037,-431,760,1
617238984,20595,2463,-6281,-0.97354101,0.106056934,0.188038109,-0.947084818,-0.244332688,9270,11052,-16022,-446,-1764,-87,1043,-427,677,1
617258984,19628,-1221,-9193,-0.968661593,0.138751505,0.192754281,-0.94606325,-0.244871378,7504,3834,-22928,102,-1359,-118,1065,-419,653,1
617278984,19910,-5230,-10535,-0.963884074,0.1627739,0.197976314,-0.945010414,-0.244393671,8224,-4016,-26400,77,-996,-143,1069,-429,628,1
617298984,16744,-4333,-9167,-0.963395482,0.164957207,0.200674613,-0.947617443,-0.234534536,2018,-2196,-24334,-515,-727,-63,1075,-429,621,1
617318984,15188,-2267,-6964,-0.963091038,0.169772528,0.197985133,-0.953883946,-0.210259929,-1090,1942,-20024,-1096,-643,-65,1053,-429,576,1
617338984,11683,-84,-6481,-0.964996371,0.16777816,0.190111996,-0.960781846,-0.184877027,-8130,6160,-19052,-1168,-421,-3,1073,-433,560,1
617358984,8427,934,-7365,-0.964147992,0.174562154,0.186277119,-0.965573989,-0.159483166,-14760,7938,-20436,-993,-52,40,1055,-445,588,1
617378984,6124,2236,-6374,-0.965019127,0.172060652,0.184074283,-0.968673563,-0.142817425,-19378,10468,-18386,-647,252,36,1067,-441,575,1
617398984,6426,837,-6166,-0.966389779,0.165217718,0.18311656,-0.970938463,-0.128460402,-18818,7638,-17748,-540,413,7,1063,-459,602,1
617418984,8312,241,-6838,-0.967675533,0.158117995,0.182157407,-0.972939435,-0.11365737,-15092,6416,-18856,-553,426,7,1057,-451,626,1
617438984,7759,-720,-7697,-0.969350636,0.151498526,0.178948239,-0.975158587,-0.099811941,-16248,4392,-20360,-537,397,107,1057,-463,611,1
617458984,7252,1188,-7321,-0.971454874,0.140937759,0.175572348,-0.977025345,-0.086303802,-17336,8100,-19260,-514,559,122,1059,-459,616,1
617478984,7792,3585,-5958,-0.974303424,0.12275329,0.173123552,-0.978524506,-0.074036451,-16350,12814,-15938,-462,860,99,1069,-467,643,1
617498984,7976,3677,-2823,-0.976898629,0.104668345,0.17007896,-0.980261864,-0.057239631,-16068,12900,-9074,-648,887,115,1059,-453,649,1
617518984,10300,2173,-576,-0.979459727,0.089698624,0.163474118,-0.982264696,-0.04080439,-11502,9678,-4090,-645,752,269,1063,-459,679,1
617538984,13623,883,2382,-0.983059406,0.075302802,0.147793729,-0.985187691,-0.028007956,-4950,6798,2396,-484,818,404,1043,-463,723,1
617558984,18933,277,4805,-0.985308973,0.068123197,0.135543666,-0.987348715,-0.009688983,5582,5126,7556,-689,638,334,1043,-479,700,1
617578984,21275,832,6185,-0.986461136,0.058168313,0.13140056,-0.987924766,0.01401308,10218,5956,10468,-921,555,178,1039,-469,757,1
617598984,21441,525,7586,-0.987044178,0.052092833,0.129264686,-0.987606384,0.038914485,10530,5274,13468,-966,399,101,1025,-473,761,1
617618984,21298,435,9588,-0.987354897,0.057003256,0.124737439,-0.986995108,0.063263085,10234,4944,17312,-948,-58,200,1027,-477,772,1
617638984,19731,2398,8266,-0.987893097,0.06253816,0.118168379,-0.986386843,0.083826505,7084,8660,14482,-804,-111,285,1009,-473,767,1
617658984,21627,6412,9998,-0.987588201,0.070163934,0.116288461,-0.985752061,0.093287677,10888,16624,17698,-340,-251,119,1015,-479,760,1
617678984,4350,12680,3296,-0.990380749,0.078680467,0.082597133,-0.9867284,0.116905119,-23684,28978,4226,-891,37,231,1001,-465,751,1
617698984,15093,11452,-8477,-0.991507374,0.037707528,0.095185958,-0.988838576,0.083762085,-2330,26018,-18170,1424,1565,-368,1001,-465,775,1
617718984,18293,4289,-6747,-0.991286751,-0.001647102,0.104530467,-0.990995117,0.02775762,4106,12300,-13744,2289,970,-644,1001,-459,813,1
617738984,29130,-5234,456,-0.990478117,-0.014561431,0.108778975,-0.990219414,-0.025486404,25770,-6910,1418,2220,318,-130,1003,-447,808,1
617758984,22753,-19567,-6360,-0.988114258,-0.047425317,0.119734009,-0.987721473,-0.054559946,13112,30316,-11154,1216,1224,-416,1001,-449,834,1
617778984,17105,-7951,-4396,-0.983963903,-0.066509807,0.142844844,-0.985118564,-0.047703015,1914,-11506,-6774,-288,636,-518,1001,-457,849,1
617798984,21155,-3910,-4700,-0.982264644,-0.069772871,0.152526041,-0.984283933,-0.033759806,10116,-2840,-7110,-541,239,-286,999,-437,872,1
617818984,23438,-2606,-3614,-0.981597286,-0.068683298,0.157033663,-0.984138176,-0.010834672,14704,-90,-4974,-891,119,-46,1003,-411,848,1
617838984,23303,2131,-4509,-0.980811432,-0.076566646,0.158510964,-0.983960673,0.017515367,14458,9434,-6506,-1105,523,99,993,-417,859,1
617858984,21866,-276,-5133,-0.979444236,-0.090163477,0.159230217,-0.983276576,0.038513891,11626,4644,-7306,-801,716,112,993,-415,896,1
617878984,19367,-101,-6236,-0.977597401,-0.114389185,0.155044132,-0.983286366,0.055241313,6696,5000,-8914,-667,887,132,979,-401,903,1
617898984,16414,2968,-5977,-0.975852022,-0.139211971,0.144367435,-0.984207494,0.066176405,858,10946,-7590,-412,863,189,991,-413,917,1
617918984,16370,739,-4579,-0.973777527,-0.160934363,0.134559126,-0.985421052,0.06810772,830,6048,-3992,-14,790,260,977,-401,922,1
617938984,16323,-481,-3706,-0.971622875,-0.179102037,0.126470055,-0.98658848,0.066562515,806,3268,-1582,142,705,261,965,-403,954,1
617958984,14882,-662,-3203,-0.969369695,-0.194448508,0.120424213,-0.987520199,0.06353651,-1998,2690,-48,197,617,189,967,-441,957,1
617978984,13973,-712,-2602,-0.967375394,-0.207431929,0.114231616,-0.988453534,0.060098303,-3746,2374,1620,227,567,206,947,-427,965,1
617998984,13980,-3817,-2834,-0.9646491,-0.220145451,0.113098454,-0.988867257,0.054894654,-3662,-4082,1570,311,550,239,949,-445,991,1
618018984,13467,-3724,-3022,-0.961527802,-0.233047802,0.113411576,-0.988855032,0.054389661,-4590,-3884,1612,110,575,224,951,-451,988,1
618038984,13954,-1949,-2605,-0.959270738,-0.24283177,0.111721054,-0.988841156,0.058280071,-3516,-268,2808,-74,519,198,941,-445,1010,1
618058984,13243,341,-1631,-0.957151914,-0.253299106,0.105954615,-0.989166269,0.063254146,-4834,4276,5164,-109,638,184,939,-451,1006,1
618078984,14329,58,-872,-0.955113117,-0.262995647,0.100597078,-0.989501081,0.06722728,-2578,3506,7066,-56,685,191,939,-449,1021,1
618098984,14579,-1002,-1257,-0.952628704,-0.273135999,0.097033697,-0.989767548,0.068928804,-2006,1196,6614,36,679,187,935,-467,1071,1
618118984,15229,-866,-1323,-0.949692976,-0.284094229,0.093130998,-0.989807904,0.073029004,-606,1348,6858,-52,741,219,917,-459,1053,1
618138984,15699,-2251,-1396,-0.946665158,-0.294732535,0.090997626,-0.989521349,0.080050474,432,-1576,7066,-159,746,288,921,-475,1078,1
618158984,15978,-1270,-933,-0.942904899,-0.307687426,0.086292486,-0.989215257,0.088720556,1132,290,8458,-204,906,343,909,-455,1094,1
618178984,16664,-1747,413,-0.939743197,-0.3181218,0.082660136,-0.988795349,0.096920511,2636,-814,11576,-175,905,335,913,-467,1118,1
618198984,17990,-1932,1376,-0.937657258,-0.32510956,0.079339419,-0.988213645,0.105829384,5378,-1298,13778,-198,823,338,901,-465,1138,1
618218984,20504,-1245,4217,-0.934862098,-0.3338106,0.075025621,-0.987099951,0.118652027,10368,-36,19376,-383,430,407,883,-467,1155,1
618238984,25761,-2028,9001,-0.938533533,-0.324407317,0.069834285,-0.985408807,0.134876704,20762,-1772,28636,-501,-343,487,877,-495,1151,1
618258984,27095,-1046,9404,-0.948028944,-0.296240408,0.067999019,-0.983323188,0.150493613,23116,134,28526,-533,-1149,340,863,-475,1160,1
618278984,24077,2085,7130,-0.959563261,-0.256983312,0.068818391,-0.980253868,0.169643741,16694,6422,22696,-719,-1598,258,897,-487,1132,1
618298984,22533,2478,5557,-0.972426606,-0.204576941,0.067107238,-0.976450535,0.191447793,13176,7154,17846,-810,-2122,347,903,-481,1106,1
618318984,22472,-520,-581,-0.98281144,-0.149043942,0.063888903,-0.975391652,0.197724259,12710,1052,3752,-179,-2266,244,945,-493,1074,1
618338984,23439,-3230,-5757,-0.988730799,-0.104362108,0.063701572,-0.978397697,0.182084888,14460,-4376,-8074,691,-1860,-8,951,-491,1063,1
618358984,24307,221,-10385,-0.990601815,-0.080361195,0.071083251,-0.983208418,0.150298163,16140,2768,-18124,1318,-1054,-355,981,-517,984,1
618378984,21801,-2776,-13331,-0.989903403,-0.06488036,0.092938857,-0.986220198,0.112694627,11142,-2512,-24514,1509,-735,-935,997,-495,965,1
618398984,19814,-9514,-13881,-0.98798055,-0.046647476,0.121075924,-0.98588199,0.084939552,7234,-15070,-26216,1100,-844,-1139,1009,-503,942,1
618418984,18248,-10113,-13701,-0.986146497,-0.016990636,0.142932383,-0.982882803,0.086129127,4168,-15558,-26834,-40,-1190,-819,1023,-493,934,1
618438984,14923,-5522,-11636,-0.984600386,0.004615914,0.157320668,-0.978877155,0.109030059,-2440,-6062,-24002,-1020,-1455,-324,1043,-479,910,1
618458984,13757,232,-9188,-0.984367177,0.030893072,0.156796002,-0.975102417,0.14053949,-4720,5720,-19934,-1348,-1552,-118,1059,-467,863,1
618478984,12231,1434,-7738,-0.983808437,0.053985996,0.153925004,-0.970921751,0.169710837,-7730,8108,-17786,-1246,-1427,-150,1051,-473,836,1
618498984,9508,-916,-7175,-0.980543811,0.08615773,0.158666147,-0.963732328,0.202212451,-13144,3348,-17150,-1273,-1089,-219,1075,-465,820,1
618518984,9092,-2959,-7287,-0.977716917,0.110565199,0.161583193,-0.954927912,0.239016278,-13870,-646,-18186,-1469,-747,-198,1091,-453,799,1
618538984,9096,-1528,-8209,-0.975223068,0.13172894,0.161161485,-0.94365111,0.280960148,-13784,2202,-20722,-1705,-574,-126,1077,-445,786,1
618558984,9443,380,-7938,-0.972833108,0.14991588,0.160051352,-0.930925075,0.321579104,-13010,5982,-20778,-1669,-461,-130,1081,-439,766,1
618578984,10503,1850,-7774,-0.975534998,0.140454849,0.153493057,-0.920582291,0.353867827,-10824,8946,-20816,-1449,-199,-195,1097,-449,778,1
618598984,11682,3026,-7274,-0.978727166,0.124784455,0.146263567,-0.91147463,0.379777109,-8590,11138,-19220,-1154,108,-200,1095,-439,759,1
618618984,11370,4443,-5919,-0.982612588,0.10562486,0.133538219,-0.902217411,0.405663496,-9356,13664,-15792,-1140,357,-81,1087,-423,771,1
618638984,10824,8172,-3533,-0.98648428,0.091299279,0.111601701,-0.892272759,0.433168285,-10588,20636,-10352,-1172,393,32,1091,-407,805,1
618658984,11654,7815,642,-0.988770586,0.088054415,0.092391463,-0.884645162,0.453047579,-9032,19268,-1622,-811,219,4,1091,-413,789,1
618678984,14630,3691,5017,-0.988625083,0.092649607,0.089213758,-0.885072127,0.452804051,-3130,10610,7224,114,105,-188,1087,-419,798,1
618698984,17484,669,5382,-0.987791693,0.095551413,0.09544858,-0.888983438,0.443736207,2590,4586,7832,509,100,-307,1089,-425,797,1
618718984,18980,273,4986,-0.987433232,0.092459857,0.101668424,-0.892306343,0.435520677,5596,3984,7104,460,303,-294,1091,-413,811,1
618738984,17945,387,5754,-0.987128891,0.092335574,0.10519788,-0.896987993,0.424934773,3536,4336,8692,569,229,-184,1087,-413,833,1
618758984,17526,-1332,6304,-0.984887872,0.111544184,0.107681299,-0.897942502,0.422190135,2754,890,9180,210,-504,-61,1087,-403,812,1
618778984,17598,-2965,6848,-0.981337119,0.140472015,0.107658656,-0.894320782,0.429959079,3000,-2458,9312,-277,-867,89,1097,-393,805,1
618798984,14849,-2731,11767,-0.972581672,0.193871981,0.10575375,-0.884567376,0.45027288,-2278,-2050,17630,-819,-1548,64,1081,-401,765,1
618818984,4345,7664,-7148,-0.979448708,0.156745849,0.102452695,-0.883171553,0.453748178,-23420,18680,-19422,-121,1575,174,1087,-415,784,1
618838984,16834,2635,-8566,-0.986074949,0.107806971,0.103437003,-0.896937553,0.425892793,1434,8870,-21186,1261,1236,-76,1095,-401,798,1
618858984,32764,-8932,8404,-0.983940922,0.116167039,0.111202157,-0.902234813,0.411862968,-32270,-14228,13014,702,-382,-180,1083,-393,822,1
618878988,21918,-14204,640,-0.985324295,0.095587684,0.117826889,-0.891976481,0.432062624,11540,-24558,-1846,-839,966,-295,1081,-407,813,1
618898988,15075,15333,-2833,-0.988378197,0.04656589,0.121011656,-0.879737671,0.455911569,-2266,-30912,-7168,-1030,2154,-136,1075,-395,826,1
618918988,9959,14156,-3059,-0.99175255,0.011793142,0.098218624,-0.881328162,0.458243474,-12496,32356,-6674,-26,1230,-45,1055,-383,889,1
618938988,16320,706,-4710,-0.992704015,-0.014346857,0.088461233,-0.892466405,0.438273525,114,4434,-9208,940,668,305,1059,-385,889,1
618958988,17138,-7190,-3381,-0.990932819,-0.038674582,0.098167577,-0.895543035,0.429627713,1762,-11450,-5628,407,808,13,1069,-405,895,1
618978988,16933,-7018,-4376,-0.988403205,-0.066241497,0.107274722,-0.894690368,0.42919334,1432,-10792,-6742,28,939,27,1045,-405,936,1
618998988,15634,-6887,-3619,-0.985525467,-0.089181609,0.11593648,-0.889681689,0.437332734,-1074,-10262,-4434,-352,849,92,1043,-405,963,1
619018988,15303,-4559,-3374,-0.982850008,-0.110682636,0.119883189,-0.882860506,0.450071556,-1636,-5360,-3212,-547,847,168,1043,-399,947,1
619038988,15083,-1133,-3217,-0.980315924,-0.133904967,0.115559367,-0.875257507,0.465806793,-1972,1552,-2112,-646,967,280,1037,-397,994,1
619058988,15448,-1022,-3438,-0.977256918,-0.158120083,0.110668803,-0.868274424,0.480014078,-1136,1590,-1708,-563,1061,341,1031,-413,993,1
619078988,15587,-1564,-3832,-0.972489886,-0.187295111,0.106060375,-0.862995207,0.490519576,-708,346,-1534,-391,1254,330,995,-415,1029,1
619098988,14499,-1794,-4246,-0.965593057,-0.221123803,0.102397135,-0.858844141,0.498533394,-2660,-242,-1254,-277,1440,294,991,-413,1056,1
619118988,14611,-1718,-3561,-0.957216181,-0.255911179,0.098652198,-0.855513878,0.505002014,-2156,-212,1284,-197,1515,290,979,-435,1100,1
619138988,15894,339,-2634,-0.949477762,-0.285666743,0.090942195,-0.85124436,0.513680449,710,3766,4224,-265,1462,339,953,-435,1144,1
619158988,16214,2480,-2037,-0.941961093,-0.312513683,0.078686361,-0.847561846,0.521756379,1628,7760,6352,-205,1417,379,953,-437,1173,1
619178988,15313,1198,-1747,-0.932409123,-0.342063339,0.068159195,-0.845212176,0.527084393,152,4768,7942,-68,1584,376,935,-447,1204,1
619198988,15970,-1242,-2277,-0.921124976,-0.372018326,0.062819917,-0.840599101,0.535105657,1830,-440,7870,-195,1634,415,921,-435,1215,1
619218988,17373,-3188,-3770,-0.911129452,-0.395685736,0.062683429,-0.833373098,0.546375034,4950,-4436,5616,-381,1330,408,889,-449,1268,1
619238988,16818,-3460,-6330,-0.90302125,-0.412987784,0.065672569,-0.827238109,0.555267021,4060,-4892,944,-331,906,271,883,-459,1289,1
619258988,15885,-243,-4612,-0.899006337,-0.42173405,0.065462657,-0.820504827,0.565280741,2376,1706,4732,-405,627,221,849,-453,1283,1
619278988,15603,-301,-3152,-0.895417269,-0.429090196,0.066577345,-0.812991578,0.575973516,1970,1624,7974,-455,683,196,849,-455,1288,1
619298988,15555,-185,-3033,-0.890284777,-0.43961186,0.065887932,-0.808309332,0.582631998,2048,1840,8576,-245,835,169,829,-459,1319,1
619318988,15217,401,-2849,-0.885050934,-0.45044546,0.062842132,-0.806357969,0.58568952,1560,2944,9310,-55,859,138,815,-457,1327,1
619338988,15651,-54,-2771,-0.879932439,-0.46062674,0.060941037,-0.805064054,0.587696431,2608,1942,9812,-13,853,108,807,-465,1359,1
619358988,16097,-88,-3500,-0.875649402,-0.469041856,0.059408118,-0.804544428,0.588611212,3630,1820,8606,27,735,75,799,-465,1345,1
619378988,15646,871,-3811,-0.873358397,-0.473433573,0.055543768,-0.805936078,0.587005522,2794,3670,8112,155,527,32,785,-465,1388,1
619398988,16383,1511,-1984,-0.874823429,-0.471600868,0.049743705,-0.809573963,0.582525775,4278,4786,11792,305,351,1,781,-475,1363,1
619418988,17216,429,36,-0.880152218,-0.46210644,0.045570002,-0.813678585,0.577098023,5810,2414,15618,360,130,-1,769,-479,1373,1
619438988,21037,-1454,1163,-0.881785318,-0.45925484,0.041013083,-0.818319187,0.570765039,13176,-1566,17376,420,-130,81,779,-505,1361,1
619458988,26278,-4344,1966,-0.888277596,-0.446964571,0.037324843,-0.819502193,0.569305461,23446,-7466,18580,187,-551,165,781,-519,1367,1
619478988,26163,14,9892,-0.907980859,-0.405043676,0.043394594,-0.806531049,0.587194078,22552,1448,-32450,-866,-1829,232,793,-527,1342,1
619498988,22122,3092,4878,-0.927014802,-0.359930076,0.042451678,-0.800524125,0.595479509,13846,7572,21576,-318,-1958,265,859,-521,1301,1
619518988,22965,2301,4656,-0.945958674,-0.308593923,0.033291005,-0.79679963,0.601092806,14908,5694,19454,-83,-2199,510,857,-527,1288,1
619538988,23430,-511,-4868,-0.962492973,-0.254328975,0.022717215,-0.802934617,0.59334146,15294,-278,-1368,558,-2301,363,903,-551,1206,1
619558988,24131,-1157,-9738,-0.973554777,-0.208569515,0.02212549,-0.815333707,0.576077325,16336,-1590,-12616,897,-1914,-114,923,-571,1157,1
619578988,24208,-515,-14706,-0.979528636,-0.177017765,0.034560666,-0.829971105,0.554007931,16302,100,-23594,1005,-1318,-637,947,-575,1107,1
619598988,22052,-2575,-15934,-0.983337639,-0.147610042,0.059528177,-0.842936626,0.531760281,11862,-3200,-27014,909,-1240,-1107,991,-561,1046,1
619618988,20651,-8148,-14564,-0.986439155,-0.107552061,0.088778255,-0.851076145,0.514310624,8950,-13390,-25576,664,-1673,-1213,991,-541,1001,1
619638988,18468,-10036,-13551,-0.988209868,-0.05698877,0.114469377,-0.845632792,0.518267855,4526,-16326,-25210,-293,-2023,-954,1031,-531,939,1
619658988,17448,-4298,-12197,-0.988343451,-0.001738675,0.128408699,-0.830100132,0.539835921,2478,-4398,-24310,-1046,-2112,-463,1039,-511,886,1
619678988,15190,-272,-10177,-0.987875354,0.032433983,0.131996926,-0.813868525,0.563660016,-1974,3860,-21972,-1223,-1943,-216,1059,-471,830,1
619698988,12909,1748,-8989,-0.987037156,0.05820444,0.130077869,-0.798573095,0.585676214,-6480,7952,-20466,-1128,-1630,-173,1055,-469,809,1
619718988,11040,769,-7665,-0.985878987,0.075574903,0.130327274,-0.784210909,0.604812078,-10172,5950,-18400,-1005,-1318,-213,1095,-449,761,1
619738988,10179,-2212,-9451,-0.984573362,0.08118413,0.136853711,-0.76718328,0.624986848,-11864,-14,-22258,-1121,-944,-226,1083,-447,726,1
619758988,7942,-2842,-10223,-0.98304709,0.081357285,0.147555229,-0.746729063,0.647079712,-16288,-992,-23892,-1284,-793,-332,1083,-445,704,1
619778988,7020,-12,-8742,-0.979879521,0.105538175,0.150925985,-0.720302382,0.675535744,-18104,4906,-20914,-1495,-729,-216,1079,-409,658,1
619798988,7117,2735,-8226,-0.977611549,0.123709902,0.152486498,-0.69724486,0.699107699,-17812,10448,-20500,-1276,-532,-146,1069,-419,627,1
619818988,6413,3843,-7998,-0.976097418,0.135007424,0.152791305,-0.679869493,0.716027407,-19168,12672,-20416,-927,-299,-72,1065,-411,629,1
619838988,6536,6954,-6729,-0.97565268,0.1388252,0.152321636,-0.669474319,0.725901544,-18902,18878,-18006,-530,-52,9,1059,-403,632,1
619858988,7459,4900,-4280,-0.975770082,0.135629958,0.154277649,-0.666789461,0.727964951,-17060,14834,-13004,-75,169,-30,1073,-401,629,1
619878988,8098,1680,-1933,-0.97587993,0.128514705,0.159674753,-0.670082174,0.723776011,-15784,8570,-8080,289,270,-124,1073,-413,620,1
619898988,8358,-1106,-1944,-0.975558255,0.121165834,0.167050755,-0.668525858,0.723568877,-15254,3236,-7858,47,323,-236,1061,-401,618,1
619918988,8760,-2385,-448,-0.975873001,0.111280335,0.171763774,-0.65853817,0.731627805,-14464,830,-4540,-446,514,-181,1045,-413,639,1
619938988,10051,-3056,2250,-0.977142792,0.102937337,0.169654467,-0.641109724,0.74750055,-11926,-580,1130,-913,529,51,1049,-399,667,1
619958988,14268,-1484,3947,-0.978813909,0.105527049,0.157963244,-0.62099262,0.766842708,-3554,2244,4600,-1086,301,359,1031,-401,663,1
619978988,18525,-654,2419,-0.980157442,0.116757838,0.140680645,-0.603184767,0.784246204,4934,3392,1032,-1012,-268,524,1043,-405,672,1
619998988,16439,2941,1485,-0.982066277,0.12555491,0.118302927,-0.581253346,0.804303816,728,10032,-1170,-1215,-217,473,1037,-405,622,1
620018988,10683,5484,4273,-0.983076137,0.128461592,0.105971322,-0.556082815,0.823647976,-10860,14434,4344,-1292,51,403,1027,-439,656,1
620038988,9077,4238,5081,-0.985008549,0.1208698,0.096119864,-0.538176265,0.836691484,-14130,11620,6206,-891,426,355,1017,-443,636,1
620058988,14685,1537,3306,-0.987795092,0.105632599,0.083771344,-0.530662857,0.842806812,-3002,5998,3266,-357,822,297,1005,-443,666,1
620078988,22882,1329,1296,-0.989937363,0.08550257,0.080553465,-0.525875306,0.846126845,13318,5292,-206,-198,863,175,995,-451,665,1
620098988,22705,6213,6815,-0.990206227,0.079066655,0.0839648,-0.517524298,0.850958643,12960,15174,11036,-332,308,-104,993,-445,687,1
620118988,8609,15174,576,-0.993339054,0.056943191,0.060518632,-0.506966494,0.859287752,-15274,-32332,-704,-482,975,-104,975,-443,657,1
620138988,22733,9024,-1862,-0.993387073,0.020418411,0.078640064,-0.544547457,0.834375037,12884,20624,-4366,1906,1376,-603,979,-421,708,1
620158988,28781,-3863,-1592,-0.991745353,-0.012620319,0.097470019,-0.58606728,0.803575454,25030,-4534,-2740,2149,1179,-698,983,-397,733,1
620178988,17062,-12515,6055,-0.98847276,-0.045584062,0.117942565,-0.619980067,0.77477177,1708,-21172,13630,1826,1170,-823,961,-379,770,1
620198988,24718,-17992,-4609,-0.983984666,-0.076002944,0.137066375,-0.638861289,0.755992498,17174,-31506,-6710,1075,1137,-778,951,-355,782,1
620218988,30502,-12671,6454,-0.9832003,-0.066810513,0.147382633,-0.625607524,0.765144311,28780,-20532,15100,-632,-264,-300,949,-357,769,1
620238988,23613,-1547,4594,-0.982161088,-0.064553337,0.155441156,-0.595799273,0.787153598,15028,1980,11314,-1476,160,-153,953,-327,776,1
620258988,13370,4067,-6174,-0.981457755,-0.085005635,0.150120571,-0.576444779,0.802523,-5394,13422,-9886,-1036,621,-121,965,-335,779,1
620278988,11823,-1000,-13691,-0.977519674,-0.117196502,0.15570241,-0.575016851,0.80257621,-8444,3136,-24204,-160,541,-212,945,-311,757,1
620298988,14059,-2454,-14066,-0.971986692,-0.152627338,0.158848293,-0.57562553,0.801524458,-3820,282,-23694,-35,787,-61,949,-315,794,1
620318988,15539,-3718,-9579,-0.967086017,-0.177331377,0.161557313,-0.568003027,0.806397742,-692,-2210,-13678,-387,692,87,959,-313,819,1
620338988,18991,-3653,-4483,-0.964725377,-0.187976869,0.161722536,-0.548781982,0.819566857,6350,-2036,-2804,-877,611,245,921,-303,835,1
620358988,19592,-281,-454,-0.965026474,-0.190317933,0.157300847,-0.520360192,0.838812752,7604,4710,5498,-1284,540,342,939,-293,846,1
620378988,16616,938,2399,-0.966236405,-0.188224889,0.152344472,-0.490429215,0.857612513,1652,7042,11288,-1302,550,302,927,-301,837,1
620398988,15506,1534,3844,-0.967707295,-0.184428431,0.147460434,-0.465989023,0.872014156,-594,8108,14134,-1019,535,199,941,-301,842,1
620418988,14073,-415,5071,-0.969654966,-0.17578987,0.145489233,-0.451737169,0.879837027,-3522,4016,16388,-515,362,136,927,-297,854,1
620438988,14004,-361,4763,-0.971823135,-0.163980592,0.144664091,-0.44387001,0.883974558,-3744,4102,15360,-237,155,26,925,-297,857,1
620458988,11014,1482,4522,-0.970915888,-0.166188873,0.148059462,-0.44226224,0.884224972,-9790,7798,14488,-35,122,-60,927,-289,844,1
620478988,10354,2847,3885,-0.970212042,-0.166808248,0.152270756,-0.447186783,0.881030791,-11084,10664,13234,252,10,-142,899,-287,850,1
620498988,15744,-1475,4658,-0.972670607,-0.152212895,0.152048402,-0.45834706,0.875289902,-312,2060,14720,621,-153,-83,911,-291,845,1
620518988,13741,-622,3143,-0.973968163,-0.145096213,0.150943544,-0.468232289,0.87021371,-4364,3778,11394,547,91,-90,905,-283,850,1
620538988,11551,-549,2332,-0.972359916,-0.15281673,0.153494461,-0.480302712,0.863138881,-8764,3910,9672,595,253,-123,911,-275,839,1
620558988,10004,-3283,2646,-0.970287643,-0.161575157,0.157130461,-0.496478923,0.853239145,-11794,-1440,10590,787,267,-204,895,-253,866,1
620578988,8373,-868,-3951,-0.968313336,-0.170459585,0.159991455,-0.51547049,0.841329379,-14990,3484,-2312,925,243,-203,891,-255,871,1
620598988,7843,-571,-3569,-0.966440953,-0.17914887,0.161456974,-0.533824086,0.829472316,-15988,4124,-1264,913,238,-152,879,-259,871,1
620618988,14758,-6759,1682,-0.965668261,-0.18006058,0.165526897,-0.549196184,0.818545625,-2122,-8376,9528,882,253,66,889,-251,877,1
620638988,18743,-9284,2105,-0.966295935,-0.178997345,0.162420808,-0.557780012,0.813297078,5816,-13272,10078,476,-96,115,873,-249,888,1
620658988,22197,-7280,1605,-0.96843347,-0.1688045,0.161225703,-0.557442293,0.813777935,12660,-9300,8738,34,-409,120,875,-241,896,1
620678988,25229,-9215,3932,-0.9720599,-0.144096637,0.16380067,-0.548092028,0.819623476,18598,-13088,12592,-409,-936,38,875,-237,881,1
620698988,30747,-11392,4008,-0.976442713,-0.10105736,0.170805857,-0.525075216,0.833231566,29476,-17214,11348,-1063,-1582,-75,877,-239,880,1
620718988,32764,-7982,1860,-0.979335433,-0.044915775,0.179581972,-0.494387647,0.850102952,-32130,-10106,5222,-1398,-2051,-176,877,-231,806,1
620738988,31746,-1235,-3611,-0.978967587,0.012651166,0.187595299,-0.464864995,0.864988916,31378,3646,-7602,-1298,-2108,-232,871,-211,778,1
620758988,25158,1705,-9222,-0.976046702,0.06185193,0.194073866,-0.442166543,0.87547509,18308,9732,-20450,-956,-1825,-229,895,-223,744,1
620778992,18847,635,-9491,-0.971156694,0.104023904,0.201380653,-0.424406538,0.882655723,5852,7826,-22376,-703,-1585,-292,905,-213,711,1
620798992,14820,-1525,-8980,-0.968767218,0.122033827,0.204994375,-0.412258659,0.887662752,-2010,3690,-22558,-611,-1373,-249,897,-213,677,1
620818992,15261,-2920,-8272,-0.967313176,0.130256644,0.206801026,-0.400105132,0.892814254,-1104,890,-21372,-614,-905,-102,905,-209,645,1
620838992,17435,-3645,-9095,-0.967660533,0.129946707,0.205245358,-0.384156303,0.90016037,3228,-626,-22994,-803,-490,27,901,-201,637,1
620858992,14859,-2163,-9422,-0.969781488,0.122793406,0.199319603,-0.360460892,0.911225885,-1982,2194,-23472,-1178,-209,101,897,-201,604,1
620878992,10665,1701,-8644,-0.974013481,0.107915251,0.186092274,-0.333228216,0.924265346,-10472,9702,-21490,-1350,60,128,907,-215,640,1
620898992,6158,2149,-9154,-0.974683139,0.103412829,0.183084537,-0.304494129,0.934712952,-19646,10266,-21676,-1194,454,57,891,-213,605,1
620918992,5217,3981,-9041,-0.975810617,0.091649389,0.183325559,-0.283799853,0.941182924,-21548,13934,-21082,-827,669,-27,901,-219,630,1
620938992,5418,1951,-9889,-0.978071952,0.070572581,0.180260558,-0.272156237,0.945208451,-21222,9776,-22088,-459,982,153,907,-231,661,1
620958992,3518,1774,-11056,-0.980375133,0.045369498,0.175061009,-0.266082481,0.947898909,-25098,9254,-23592,-229,1111,263,909,-209,656,1
620978992,3632,4638,-7788,-0.981604628,0.019096635,0.172270087,-0.265149854,0.948662303,-24910,14892,-16196,2,1111,178,893,-209,684,1
620998992,3601,3702,-4856,-0.982491018,-0.000499578,0.167791876,-0.25730657,0.951615792,-25000,12876,-9692,-290,885,249,875,-205,706,1
621018992,8423,402,-1251,-0.984221563,-0.014258154,0.156598171,-0.234375164,0.959413223,-15414,5914,-2028,-926,742,534,899,-221,701,1
621038992,17172,-1349,5690,-0.986570889,-0.007268125,0.141522124,-0.202016538,0.96906526,2016,1982,11944,-1252,326,631,871,-247,708,1
621058992,27982,-164,11219,-0.987122949,-0.014437096,0.136624495,-0.162553996,0.977175593,23600,4134,22926,-1583,542,291,899,-239,721,1
621078992,24900,3054,11258,-0.98574876,-0.037157942,0.141782355,-0.130852053,0.98121555,17482,10738,23748,-1255,1133,-104,881,-237,736,1
621098992,17226,2174,16057,-0.984658934,-0.049321996,0.145138737,-0.11719691,0.982460439,2182,9086,-31802,-514,600,-45,867,-241,737,1
621118992,18589,3849,18187,-0.985954899,-0.03667672,0.140232748,-0.100428723,0.985025963,4864,12280,-27956,-629,-404,298,879,-249,724,1
621138992,-2156,7982,2566,-0.988151312,-0.033087149,0.124601255,-0.067317525,0.989926582,28830,20038,6230,-1283,50,754,859,-247,717,1
621158992,18251,18310,-1175,-0.98470632,-0.075088419,0.132624035,-0.087726623,0.987285316,4218,-24582,126,864,1634,-308,867,-251,721,1
621178992,21653,372,-13367,-0.978511432,-0.113920156,0.148875126,-0.153958285,0.976800559,11194,5610,-22948,2693,1243,-860,851,-229,767,1
621198992,23313,-11243,934,-0.975796364,-0.1290491,0.15404992,-0.218061149,0.963669956,14614,-17454,6138,2660,242,-478,845,-237,793,1
621218992,27155,-16387,-1018,-0.969415918,-0.15133322,0.172652147,-0.249615222,0.95281589,22526,-27142,2940,1277,740,-878,841,-227,788,1
621238992,22945,-8355,2235,-0.965544369,-0.153801132,0.191822895,-0.255390609,0.947670026,14248,-10464,9510,204,89,-747,847,-213,812,1
621258992,20768,1091,-1429,-0.962355221,-0.151453892,0.209199109,-0.249414816,0.945671435,9994,8986,2108,-271,-13,-596,829,-175,800,1
621278992,26993,3873,116,-0.961659409,-0.145939784,0.216538402,-0.237837136,0.94705583,22472,14786,5016,-460,-103,-155,837,-159,820,1
621298992,20500,2955,-8321,-0.960502937,-0.148161227,0.220231768,-0.239808295,0.945728434,9524,13068,-11790,115,94,-98,815,-161,805,1
621318992,17470,-4351,-13017,-0.957645481,-0.158807386,0.22516206,-0.244174803,0.943477018,3556,-1388,-20830,208,430,-164,823,-183,815,1
621338992,15604,-4611,-11744,-0.952993032,-0.18400285,0.226585147,-0.243372275,0.94336844,-100,-1886,-17876,-103,578,67,829,-157,834,1
621358992,13626,-3218,-10552,-0.948330766,-0.209055383,0.22395794,-0.235319423,0.946022993,-3912,860,-14656,-383,659,240,799,-179,823,1
621378992,12636,-2528,-6772,-0.944153486,-0.229337949,0.221033489,-0.22275169,0.94973301,-5724,2168,-6262,-518,707,267,811,-171,877,1
621398992,16473,-5172,-1641,-0.941813774,-0.236486668,0.22234325,-0.205404706,0.953343308,2090,-3196,4614,-599,664,275,815,-175,874,1
621418992,17330,-4890,3216,-0.942211881,-0.231068494,0.226671131,-0.17817492,0.957842529,3862,-2474,14392,-955,521,221,815,-189,875,1
621438992,15432,-1945,6836,-0.94473776,-0.215904513,0.231422623,-0.144700525,0.962392589,50,3696,21324,-1184,409,84,807,-191,866,1
621458992,14339,2348,7794,-0.949567033,-0.198425451,0.2275597,-0.120468058,0.966626834,-2236,12384,22694,-794,263,36,813,-167,883,1
621478992,11919,5185,7654,-0.955127465,-0.183071274,0.216557361,-0.113291541,0.969944341,-7232,17876,21914,-106,190,-49,811,-175,882,1
621498992,10148,6030,6357,-0.960318085,-0.17304093,0.201229544,-0.122117992,0.972085174,-10946,19160,18942,524,206,-107,799,-151,879,1
621518992,12119,745,6384,-0.962585101,-0.166907938,0.195417149,-0.142878775,0.970402949,-7160,8056,18826,1019,310,-138,799,-165,884,1
621538992,13565,-3688,4080,-0.962342165,-0.167928847,0.195663653,-0.172147773,0.965574501,-4350,-1080,14098,1351,346,-88,799,-167,895,1
621558992,12622,-3662,-539,-0.960250676,-0.177184857,0.197541643,-0.200353369,0.959722273,-6222,-972,4868,1237,338,-127,781,-153,897,1
621578992,11830,-6158,-2005,-0.95686074,-0.18515487,0.206897178,-0.219847903,0.953496924,-7746,-5838,2086,856,222,-148,791,-155,932,1
621598992,12652,-5985,-1656,-0.954136144,-0.191260267,0.214037415,-0.23158296,0.949165089,-5996,-5224,3022,556,253,-58,789,-165,926,1
621618992,14474,-6418,-584,-0.952085407,-0.194905775,0.219592666,-0.236898258,0.946608007,-2266,-5890,5370,321,308,25,767,-161,924,1
621638992,14052,-5340,1605,-0.952112686,-0.192031521,0.222167807,-0.235750264,0.946312485,-3086,-3506,9592,24,21,23,753,-175,936,1
621658992,17438,-6883,1882,-0.954050025,-0.175473962,0.228095306,-0.226944013,0.947106671,3628,-6504,9776,-238,-281,68,785,-171,939,1
621678992,25411,-8318,5234,-0.957469024,-0.153586447,0.22975826,-0.21235897,0.950105213,19440,-9174,15508,-558,-762,103,763,-167,953,1
621698992,30119,-11080,7184,-0.962288924,-0.111590639,0.234759022,-0.183744229,0.954897575,28686,-14534,18044,-1145,-1466,29,777,-181,901,1
621718992,32764,-6514,4532,-0.965467118,-0.050167108,0.243928465,-0.14932755,0.958694233,-31680,-5106,10744,-1381,-2209,-181,783,-169,883,1
621738992,32764,-1097,-507,-0.964252342,0.013121551,0.25431213,-0.120537672,0.960159203,-31644,6058,-1406,-1125,-2333,-330,799,-159,826,1
621758992,28741,1315,-5749,-0.959916472,0.070631862,0.262246189,-0.097423442,0.960744051,25998,11130,-13786,-873,-2156,-290,813,-163,790,1
621778992,22198,2437,-9903,-0.953470668,0.120081123,0.268729148,-0.082298474,0.960450154,13132,13578,-23724,-534,-1916,-254,831,-157,740,1
621798992,17872,-1163,-10307,-0.94597997,0.159895321,0.275154042,-0.075280821,0.959289586,4730,6578,-25842,-191,-1610,-232,823,-153,711,1
621818992,16590,-3821,-12522,-0.939715603,0.188049933,0.279365461,-0.066938711,0.958750349,2376,1394,-31200,-252,-1104,-162,805,-145,672,1
621838992,15686,-2392,-9128,-0.940316554,0.192299126,0.275755427,-0.056737907,0.960425846,720,4204,-25188,-587,-819,-2,837,-163,658,1
621858992,10867,-334,-8580,-0.943406358,0.188911796,0.266986147,-0.039084211,0.963669181,-8998,8114,-24064,-932,-495,42,827,-159,641,1
621878992,6664,1799,-7518,-0.942665495,0.197653465,0.261661107,-0.018840443,0.965658261,-17582,12078,-21496,-799,-104,110,831,-165,619,1
621898992,4238,1174,-7076,-0.943873091,0.196392205,0.257884628,-0.002917001,0.966809969,-22458,10706,-20584,-615,255,84,827,-157,625,1
621918992,3772,125,-9209,-0.94726688,0.185079446,0.253432809,0.011822265,0.967871873,-23502,8466,-24480,-572,670,126,837,-167,648,1
621938992,4284,-450,-9769,-0.952484593,0.167382566,0.245552428,0.027168378,0.969515724,-22650,7068,-25020,-619,945,269,829,-181,635,1
621958992,5341,435,-9892,-0.958208399,0.148811366,0.234495917,0.042831501,0.971590083,-20724,8484,-24656,-648,975,409,841,-183,628,1
621978992,7152,3321,-9575,-0.963888662,0.125465205,0.223842686,0.05479517,0.973418619,-17292,13916,-23252,-486,1131,428,831,-187,670,1
621998992,6568,4494,-7025,-0.96861098,0.101166241,0.214958994,0.068720266,0.974477023,-18616,15980,-17356,-549,1171,362,829,-203,660,1
622018992,7508,1343,-2750,-0.971624831,0.082910417,0.208629231,0.086231655,0.974419635,-16830,9472,-8212,-680,937,258,833,-183,717,1
622038992,12723,-675,1811,-0.973351477,0.07532775,0.202784442,0.106117288,0.973651467,-6458,5250,1160,-772,510,239,827,-203,718,1
622058992,17858,-909,7083,-0.97586209,0.075776106,0.190198763,0.130511206,0.973162403,3736,4508,11980,-887,559,348,823,-213,704,1
622078992,22286,-852,8846,-0.97820776,0.053325798,0.185332877,0.157832509,0.970016634,12504,4336,15956,-1076,1164,195,803,-209,708,1
622098992,20354,2484,9464,-0.97862358,0.031328939,0.187436341,0.173910679,0.966853997,8628,11074,17910,-612,1058,-46,811,-219,740,1
622118992,20862,5432,15194,-0.979332294,0.031516157,0.183772581,0.196587376,0.96317786,9626,16850,29358,-888,187,189,815,-231,752,1
622138992,15703,6822,25901,-0.977284821,0.089366673,0.176288257,0.21937531,0.959606063,-650,19394,-16636,-904,-2199,314,813,-231,726,1
622158992,12270,21646,2330,-0.982500406,0.041040687,0.16373334,0.22137679,0.961333869,-7676,-16900,3332,-47,2029,573,801,-213,730,1
622178992,16917,2375,-11417,-0.979362726,-0.003251234,0.185559374,0.154073358,0.970578751,1688,10806,-22676,2820,1356,-779,791,-221,722,1
622198992,28528,-10107,-3978,-0.976509282,-0.017222915,0.199421506,0.085658764,0.976349263,25016,-13716,-7352,2827,55,-536,779,-229,790,1
622218992,27692,-23232,5002,-0.972788453,-0.031255312,0.215352227,0.048805356,0.975595884,23492,26076,11042,1522,292,-623,779,-211,795,1
622238992,19184,-8632,-5542,-0.968228912,-0.048733922,0.232402858,0.050788075,0.971690755,6636,-9716,-9484,-70,774,-621,759,-197,815,1
622258992,24194,290,-6096,-0.965551486,-0.042687574,0.245170323,0.063013561,0.967936501,16746,8534,-10792,-481,-108,-426,769,-197,800,1
622278992,22087,-1487,-754,-0.964490142,-0.039899953,0.249804809,0.084642034,0.965134254,12560,5128,-194,-843,130,-81,765,-173,819,1
622298992,19072,5379,-5652,-0.963791847,-0.041490631,0.252368173,0.097674556,0.963256193,6558,18940,-9944,-489,225,-14,769,-181,789,1
622318992,20370,-6297,-8657,-0.962056249,-0.050729448,0.257305618,0.098244052,0.961942002,9212,-4254,-15652,10,417,-135,751,-163,811,1
622338992,17296,-6010,-8263,-0.959547797,-0.073091108,0.262056697,0.105394984,0.959959267,3112,-3586,-14474,-361,627,-31,751,-167,814,1
622358992,16411,-2040,-9595,-0.958522825,-0.098551307,0.25737101,0.11825929,0.95967574,1402,4380,-16364,-591,740,158,761,-175,821,1
622378992,14244,939,-7719,-0.957437703,-0.127660785,0.246841844,0.130664876,0.96071252,-2876,10158,-11596,-540,954,214,765,-179,822,1
622398992,14175,-679,-5367,-0.955327952,-0.154878119,0.238272138,0.140627334,0.961384799,-2952,6556,-5850,-385,1024,248,757,-175,839,1
622418992,12765,-1212,-4040,-0.952818332,-0.177617254,0.231532738,0.15094595,0.961404707,-5690,5230,-2376,-374,932,245,753,-177,856,1
622438992,10784,820,-726,-0.950008012,-0.19266537,0.230787032,0.162889861,0.959620206,-9568,9136,4866,-426,774,190,751,-183,856,1
622458992,13587,-1522,3578,-0.952621557,-0.185677603,0.225718959,0.175728684,0.958515396,-3936,4382,13652,-324,346,233,739,-185,894,1
622478992,20204,-5650,8581,-0.954086859,-0.180439688,0.223811413,0.1881811,0.956575437,9140,-4028,23076,-439,-91,242,733,-181,848,1
622498992,16602,-2833,12103,-0.954477496,-0.170638777,0.22997286,0.206931464,0.951256536,1922,1804,29802,-774,-203,-35,743,-187,879,1
622518992,14813,5006,12103,-0.960081676,-0.143594552,0.224951769,0.226406718,0.947959106,-1638,17696,29602,-586,-86,-100,729,-175,873,1
622538992,12062,7398,8359,-0.964653667,-0.128937937,0.214393607,0.227113277,0.950169181,-7274,22326,21508,161,104,-235,743,-167,833,1
622558992,8489,5997,3104,-0.96168205,-0.137067283,0.222466581,0.19817158,0.954851827,-14544,19224,10710,1180,109,-423,731,-171,846,1
622578992,10881,-885,-961,-0.959709361,-0.144902948,0.22573833,0.155777005,0.961963726,-9704,5566,2846,1757,-43,-326,713,-173,864,1
622598992,12851,-7880,-4040,-0.956307653,-0.156411694,0.232753213,0.118527528,0.965668989,-5730,-8482,-3056,1530,14,-96,731,-171,854,1
622618992,11493,-8902,-4798,-0.952254232,-0.168745983,0.240988271,0.100458091,0.965774646,-8336,-10340,-4224,741,168,69,709,-167,873,1
622638992,12016,-4696,-3166,-0.950191202,-0.175496021,0.243830447,0.093539219,0.965780314,-7150,-1592,-642,309,161,43,699,-171,867,1
622658992,14036,-5133,327,-0.949751606,-0.172973754,0.247509682,0.091196211,0.965103133,-3042,-2340,6508,192,117,20,707,-177,875,1
622678992,17400,-6957,3136,-0.950490851,-0.168172617,0.248343328,0.091955224,0.964826642,3662,-5904,11882,55,-56,87,711,-177,885,1
622698996,24016,-10205,1693,-0.952613784,-0.15473319,0.249095499,0.104291065,0.963379433,16814,-12332,8458,-453,-423,120,715,-185,877,1
622718996,28656,-10988,6366,-0.956530023,-0.11898835,0.254199567,0.130582146,0.958868807,25954,-13734,16648,-1051,-1208,18,715,-179,833,1
622738996,31240,-7860,5852,-0.960018329,-0.060577918,0.26292105,0.168636315,0.950620782,30990,-7196,13722,-1557,-2023,-134,717,-193,829,1
622758996,32137,-2091,255,-0.95949628,0.004448099,0.272776082,0.2052099,0.940694533,-32746,4656,404,-1499,-2296,-285,725,-171,728,1
622778996,30464,-645,-5511,-0.955640195,0.064523181,0.279798821,0.231317854,0.932615127,29582,7766,-13108,-1047,-2208,-254,727,-167,705,1
622798996,26937,-1526,-10684,-0.949240666,0.115444314,0.286146451,0.250250449,0.925854778,22748,6204,-25132,-737,-1914,-265,731,-157,689,1
622818996,19993,-1346,-11200,-0.941489071,0.155958146,0.293245402,0.263768256,0.919960825,9118,6784,-27496,-497,-1548,-303,743,-167,634,1
622838996,18227,-4619,-12559,-0.934328701,0.186006417,0.299454963,0.2808224,0.912981978,5830,430,-31208,-638,-1066,-312,713,-161,595,1
622858996,16770,-2346,-8932,-0.933300938,0.194353513,0.298407685,0.300029021,0.907194173,3118,5038,-24834,-950,-834,-227,715,-141,603,1
622878996,12607,-106,-8294,-0.93529997,0.194742434,0.291551922,0.324374896,0.900880203,-5244,9390,-23628,-1196,-488,-160,721,-151,571,1
622898996,7479,1570,-8047,-0.933659382,0.206576034,0.287273379,0.350536721,0.89225564,-15660,12428,-22846,-1087,-133,-1,729,-157,570,1
622918996,5742,1767,-7750,-0.934745599,0.207972793,0.282401047,0.371026065,0.885388864,-19152,12664,-22312,-850,230,72,733,-159,554,1
622938996,6028,466,-8147,-0.938044377,0.200327089,0.276503331,0.388139598,0.879777199,-18688,9878,-22854,-715,573,148,713,-149,542,1
622958996,6641,1092,-10017,-0.943114579,0.18316149,0.270696055,0.406076252,0.873354487,-17632,10946,-26030,-754,989,147,727,-167,541,1
622978996,6362,-1018,-10351,-0.947518703,0.164235782,0.267005129,0.420823833,0.867411045,-18334,6612,-26078,-614,1016,98,717,-183,565,1
622998996,5271,2303,-9796,-0.952776505,0.14332005,0.259578304,0.440182814,0.859889667,-20690,13018,-24280,-828,1151,231,723,-183,559,1
623018996,6611,7905,-7396,-0.958166931,0.121634178,0.249961442,0.460139658,0.852104818,-18188,23916,-18768,-860,1177,338,743,-177,577,1
623038996,6951,6118,-4331,-0.96190263,0.108681804,0.241007695,0.481864352,0.842486931,-17628,20058,-12216,-948,815,315,735,-189,591,1
623058996,10711,2105,-111,-0.964882396,0.103610359,0.230474485,0.507640414,0.830038175,-10208,11696,-3608,-1150,525,367,741,-199,587,1
623078996,16785,754,5320,-0.969073692,0.1032413,0.211869076,0.533016726,0.818814203,1840,8638,7462,-1051,541,411,727,-215,586,1
623098996,19997,2472,8743,-0.972660793,0.091666853,0.19986778,0.558089834,0.804863386,8108,11450,14492,-1152,754,438,717,-211,581,1
623118996,19034,4130,8986,-0.974919392,0.073074635,0.195801111,0.575449923,0.79346944,6110,14638,15586,-805,967,159,705,-223,635,1
623138996,19460,1784,10885,-0.976083867,0.063539168,0.19326043,0.584607013,0.787342926,6930,9860,19690,-404,503,140,735,-225,602,1
623158996,20333,1350,11529,-0.976660699,0.067657357,0.188913738,0.59292848,0.782112442,8658,8852,20842,-359,-72,217,699,-229,630,1
623178996,22137,3829,14051,-0.976507768,0.078221649,0.185742726,0.597647242,0.779246747,12272,13710,25540,-184,-374,178,717,-217,617,1
623198996,9419,11485,12226,-0.978103094,0.110747904,0.159161069,0.616855035,0.769958911,-13162,28820,21402,-696,-464,257,697,-223,566,1
623218996,23981,7031,-19520,-0.979877045,0.043697862,0.178384205,0.586439019,0.789420601,15806,19884,25108,1564,2531,-604,695,-201,584,1
623238996,19044,2047,-873,-0.977038749,0.023131579,0.196667825,0.529292414,0.824906318,6088,10794,-2526,2795,255,-957,697,-177,643,1
623258996,21683,-17997,-2108,-0.973529637,0.0041683,0.214827451,0.479878306,0.850443257,11436,-29004,-4324,2314,330,-648,705,-167,657,1
623278996,11663,-9025,-12566,-0.966240115,-0.040119655,0.244124221,0.458459105,0.854696617,-8428,-10414,-24424,711,929,-768,673,-149,667,1
623298996,17280,-3335,-15179,-0.963118672,-0.048088912,0.253801034,0.456950292,0.852738362,2986,1560,-28770,41,369,-330,661,-165,684,1
623318996,21741,-9575,-7302,-0.961586336,-0.051644105,0.258851585,0.470568208,0.843789395,11966,-10762,-12908,-622,347,-103,665,-129,683,1
623338996,32764,-5005,8197,-0.961057886,-0.039567605,0.263357126,0.505703621,0.821760051,-31516,-1476,17704,-1640,-37,-32,661,-129,702,1
623358996,18419,6035,-1008,-0.963592108,-0.041091748,0.253187661,0.542960748,0.800685287,5382,20796,-672,-1696,536,-102,651,-133,657,1
623378996,16652,4757,-4753,-0.964693576,-0.057369709,0.245257448,0.56201867,0.78978774,1792,17934,-7834,-914,682,-156,651,-133,655,1
623398996,13593,827,-6030,-0.9644829,-0.083431441,0.23833091,0.562323427,0.791641949,-4382,9654,-9652,-12,710,13,673,-135,646,1
623418996,14940,-3502,-7504,-0.962885311,-0.107622776,0.234913677,0.560163012,0.794180525,-1708,638,-11814,97,593,183,671,-135,668,1
623438996,15521,-2864,-4319,-0.962167649,-0.122330228,0.229348735,0.567270948,0.790635165,-504,1774,-4762,-291,546,267,657,-139,671,1
623458996,14902,-1187,-3243,-0.962278493,-0.134458844,0.221521115,0.577676008,0.785216367,-1712,4962,-2156,-418,538,272,673,-147,720,1
623478996,10787,3764,-3667,-0.959729463,-0.150248157,0.222351488,0.57736674,0.785223855,-9878,14754,-2408,55,681,31,667,-135,684,1
623498996,10751,1574,-2725,-0.95687454,-0.165878791,0.222943907,0.571523612,0.789323209,-9858,10394,-10,331,619,-7,673,-133,701,1
623518996,18690,-5583,1665,-0.957256174,-0.165734092,0.221568552,0.566927696,0.793029746,6040,-4036,8998,376,246,154,669,-133,711,1
623538996,16651,-8722,5506,-0.957910724,-0.153595004,0.228068672,0.57422098,0.785953319,1924,-10282,16452,-232,95,163,663,-137,756,1
623558996,14038,-2316,8705,-0.960616427,-0.130888099,0.231050891,0.594348447,0.769904893,-3308,2910,22318,-836,66,35,673,-151,735,1
623578996,10668,5248,7613,-0.965044852,-0.11408681,0.221362928,0.607517008,0.762314778,-10094,18182,19558,-414,186,-105,667,-139,715,1
623598996,10165,6530,7046,-0.968668714,-0.103269696,0.210406799,0.602486532,0.769312827,-11218,20480,18026,502,164,-278,657,-137,713,1
623618996,14969,1570,5792,-0.969681088,-0.099568535,0.207172356,0.578114027,0.788691333,-1742,10150,15296,1396,133,-299,645,-107,739,1
623638996,15633,-4257,1910,-0.969141064,-0.098467568,0.210919527,0.551433401,0.806731921,-488,-1708,7262,1399,-54,-164,655,-115,723,1
623658996,12284,-3133,-3445,-0.968029682,-0.104494745,0.21308921,0.531671789,0.819397068,-7184,634,-3620,953,-127,-82,645,-125,741,1
623678996,10904,-1664,-4501,-0.967112007,-0.110745827,0.213596155,0.515300604,0.829688024,-9890,3618,-5366,827,117,-45,653,-111,746,1
623698996,12044,-3727,-4758,-0.965122623,-0.125295052,0.215099627,0.49783673,0.839978909,-7582,-526,-5638,814,163,-4,645,-103,760,1
623718996,15253,-6952,-1214,-0.963865886,-0.129600216,0.217656845,0.487518976,0.845377257,-1120,-7028,1874,548,161,145,641,-105,775,1
623738996,20071,-10175,90,-0.965132523,-0.127195792,0.212980677,0.487056322,0.846791452,8514,-13426,4350,118,-93,248,641,-115,775,1
623758996,20502,-6693,4675,-0.967260638,-0.11507896,0.210365471,0.494794698,0.842916768,9304,-6544,13122,-287,-416,216,635,-117,757,1
623778996,26457,-11133,7792,-0.970372234,-0.085924782,0.210500056,0.510637248,0.833345218,21108,-15416,18406,-699,-1038,139,647,-109,771,1
623798996,31677,-10318,5759,-0.972237712,-0.037557134,0.216792825,0.529472711,0.819855284,31472,-13584,12770,-905,-1787,-126,651,-103,707,1
623818996,31701,-6867,233,-0.971481968,0.01891949,0.223716476,0.551074639,0.803596159,31540,-6460,-126,-1049,-2087,-201,655,-119,725,1
623838996,30131,-3618,-6019,-0.967710976,0.076462828,0.228529083,0.571822893,0.787547713,28520,194,-14516,-1006,-2138,-180,647,-83,666,1
623858996,27023,-2610,-12329,-0.961224722,0.127939409,0.233994911,0.587956352,0.773958694,22524,2382,-28830,-778,-1946,-243,651,-87,628,1
623878996,20735,-893,-12707,-0.952901715,0.170805691,0.241521359,0.602500932,0.760373695,10228,6054,-30998,-698,-1609,-358,645,-91,592,1
623898996,16591,-2560,-13320,-0.945016997,0.20360191,0.247729306,0.618468203,0.745424476,2202,2918,32234,-775,-1171,-352,649,-87,587,1
623918996,14251,613,-8320,-0.945418127,0.209407657,0.242333726,0.636640446,0.731773911,-2282,9286,-24136,-1027,-791,-210,649,-99,570,1
623938996,12896,227,-8081,-0.947803505,0.207087105,0.234775935,0.65508116,0.717699056,-5084,8246,-23600,-1078,-456,-96,641,-99,553,1
623958996,9176,2252,-8638,-0.946224496,0.218125127,0.229640296,0.674240455,0.701122306,-12676,11966,-24408,-1010,-180,39,641,-93,541,1
623978996,5376,2612,-7753,-0.946927115,0.220634818,0.224018405,0.689528905,0.687805861,-20284,12502,-22732,-803,117,106,641,-101,525,1
623998996,4625,1371,-7341,-0.949620428,0.214487698,0.218228918,0.701957317,0.67689391,-21874,9836,-21706,-656,445,146,641,-105,529,1
624018996,5033,1267,-7747,-0.953418368,0.203193586,0.212161802,0.715258354,0.66468541,-21182,9434,-22148,-716,671,154,655,-101,538,1
624038996,6756,831,-9100,-0.957056714,0.19079922,0.206859858,0.72792198,0.652382206,-17858,8394,-24448,-696,705,132,647,-89,555,1
624058996,8274,1014,-10035,-0.960958064,0.177031271,0.200393462,0.741003096,0.639405422,-14950,8552,-25866,-732,766,184,663,-107,534,1
624078996,8967,5953,-10892,-0.971639404,0.135419337,0.179854417,0.754796563,0.629197475,-13716,18212,-26960,-831,992,193,663,-107,542,1
624098996,8450,8148,-5747,-0.975467183,0.116426062,0.170955984,0.771817245,0.6105127,-15082,21874,-15296,-1018,1004,294,651,-111,575,1
624118996,11046,3334,-929,-0.978438109,0.104101768,0.161464759,0.785401762,0.595483353,-9976,11938,-5264,-808,673,358,653,-123,544,1
624138996,14921,738,4842,-0.981093906,0.098975882,0.147541822,0.795117194,0.58600249,-2304,6478,6654,-487,581,346,649,-125,574,1
624158996,19015,-1750,10760,-0.982856559,0.089250635,0.141391966,0.804682026,0.574233672,5816,1118,18600,-587,514,258,655,-153,562,1
624178996,21680,-2260,12094,-0.983605158,0.080420446,0.141058502,0.813348401,0.561874401,11124,86,21556,-564,473,27,655,-131,573,1
624198996,19905,532,10532,-0.984164324,0.074040815,0.140732509,0.819099661,0.553516433,7560,5660,18636,-363,338,46,661,-121,567,1
624218996,16937,2368,10937,-0.984210787,0.088153299,0.132357842,0.827028802,0.543629488,1616,9288,19442,-388,72,89,657,-149,572,1
624238996,22034,5563,18283,-0.98210578,0.111942586,0.130764206,0.836083697,0.529924912,11880,15400,-32634,-621,-872,63,649,-163,571,1
624258996,3956,18147,-4414,-0.99018112,0.063384278,0.095749422,0.843972599,0.524719786,-24438,-25178,-11122,-359,1778,294,657,-137,560,1
624278996,17720,10172,-1899,-0.989369558,0.035952492,0.115715606,0.817772191,0.561202582,2994,24128,-4954,1909,941,-661,669,-133,605,1
624298996,26540,-6873,-12156,-0.987001669,0.002067816,0.138076561,0.77701064,0.612075208,20688,-9230,-24332,2707,1070,-801,641,-121,626,1
624318996,24170,-11697,4249,-0.984652871,-0.026453683,0.15157864,0.74909989,0.643140396,16056,-18442,9384,1737,942,-511,645,-111,643,1
624338996,24533,-15839,-4784,-0.98115355,-0.046325313,0.1686495,0.735648846,0.654468713,16906,-26178,-8042,728,725,-658,637,-101,689,1
624358996,22255,-6195,-4013,-0.979021942,-0.044881763,0.181029922,0.745073786,0.640320508,12422,-6490,-6550,-659,87,-403,629,-119,675,1
624378996,18805,-15,-2657,-0.978644453,-0.048688777,0.182282502,0.758767966,0.623610184,5564,6086,-3806,-859,228,-163,625,-105,687,1
624398996,22664,-2250,-3260,-0.977810021,-0.051587271,0.185743627,0.773262683,0.604384197,13280,1552,-4824,-935,326,-25,617,-103,667,1
624418996,24080,-1316,-2447,-0.97660212,-0.056658659,0.19071117,0.78431288,0.588347649,16156,3580,-3036,-751,382,-90,623,-91,666,1
624438996,20531,-3873,-4096,-0.975644905,-0.059344934,0.194627149,0.796227828,0.570704065,9086,-1408,-6244,-823,303,-39,629,-85,658,1
624458996,17779,1035,-5517,-0.976083025,-0.070818543,0.188796429,0.810145382,0.552727751,3598,8448,-8938,-921,395,79,609,-87,664,1
624478996,17824,1209,-3989,-0.976894047,-0.078537945,0.180524817,0.820663836,0.539601203,3660,8538,-5538,-659,301,159,623,-93,649,1
624498996,16077,1411,-2432,-0.977474188,-0.088013921,0.172215227,0.829366511,0.528740194,158,8686,-2042,-520,438,139,625,-93,671,1
624518996,14656,2279,-1044,-0.978532525,-0.095370697,0.161903813,0.832773622,0.526600387,-2702,10142,1056,-86,369,116,635,-91,665,1
624538996,12642,865,-1571,-0.977456503,-0.104893522,0.162142831,0.828609385,0.533075778,-6748,7020,298,358,365,22,635,-87,670,1
624558996,8865,1411,-1157,-0.976186896,-0.113721047,0.163569167,0.822267605,0.542432038,-14262,8158,1414,497,313,-45,621,-99,691,1
624578996,7123,-102,-1594,-0.975181492,-0.121033791,0.16435757,0.813552866,0.555288626,-17712,5156,780,673,216,-44,615,-99,711,1
624599000,9604,-2416,-1343,-0.974215716,-0.127739908,0.164824768,0.802658908,0.570876746,-12722,546,1504,813,170,-54,623,-105,679,1
624619000,11963,-4598,-1221,-0.973368516,-0.135868998,0.163267321,0.791541845,0.586727809,-7974,-3870,2012,836,226,19,607,-99,691,1
624639000,11931,-6793,1142,-0.970927918,-0.140985498,0.173287387,0.787574993,0.589259814,-7982,-8266,7112,269,458,40,625,-77,745,1
624659000,10156,-2263,2460,-0.96876397,-0.15275605,0.17515928,0.786892688,0.589624545,-11438,1184,9928,65,508,-13,621,-91,727,1
624679000,8852,1169,3077,-0.965838302,-0.166532161,0.178349149,0.783771027,0.592836617,-13950,8152,11612,205,570,-92,599,-79,741,1
624699000,23035,-5323,8421,-0.964417383,-0.175038287,0.177883076,0.772970393,0.607081642,14464,-4848,22580,768,245,-45,607,-87,750,1
624719000,19475,-8432,8083,-0.964037944,-0.174542816,0.180323258,0.767597672,0.613183131,7358,-10988,21888,355,-57,-92,599,-69,745,1
624739000,13643,3042,1618,-0.967359435,-0.161212809,0.17525173,0.769808969,0.611864565,-4302,12164,8770,-33,-204,-180,569,-61,770,1
624759000,11836,3077,-164,-0.966722649,-0.157959182,0.181407522,0.759726983,0.622636195,-8012,12066,4852,597,-215,-280,591,-77,770,1
624779000,16627,-2033,-3922,-0.967505973,-0.155186404,0.180103534,0.746445816,0.638987523,1548,1864,-2832,878,-350,-94,587,-87,766,1
624799000,21533,-6264,-2256,-0.969752669,-0.14643381,0.175260027,0.735769439,0.652607767,11282,-6814,292,773,-479,149,583,-91,780,1
624819000,27082,-13622,1972,-0.973534416,-0.125168191,0.171143039,0.738113303,0.651029473,22258,-21662,8046,-37,-852,246,589,-99,775,1
624839000,30524,-11275,1971,-0.977705117,-0.082020123,0.173930266,0.752569143,0.633386578,28990,-16876,6650,-887,-1604,53,603,-117,764,1
624859000,31153,-5924,1326,-0.979328042,-0.02394999,0.183792313,0.771339709,0.607431155,30182,-5856,3468,-1270,-2144,-258,595,-113,739,1
624879000,28595,-4210,-2563,-0.977168325,0.039677784,0.193999221,0.787924677,0.582430368,25134,-2096,-6392,-1164,-2383,-355,607,-117,687,1
624899000,26465,-3219,-6614,-0.972408816,0.095542662,0.199398457,0.800127044,0.563594304,21036,56,-16334,-845,-2120,-213,629,-105,663,1
624919000,26118,-3298,-10499,-0.96619593,0.14079099,0.203376787,0.808982532,0.549257895,20552,26,-25594,-612,-1731,-178,629,-103,640,1
624939000,21602,-1553,-8988,-0.958738158,0.180316268,0.208356813,0.819679724,0.531206768,11772,3674,-23874,-756,-1471,-271,621,-107,618,1
624959000,15184,1111,-8659,-0.957456855,0.191985628,0.205464261,0.833872758,0.510024413,-834,9114,-24226,-1083,-1038,-307,627,-99,580,1
624979000,12472,1145,-4001,-0.955447722,0.204829475,0.202109394,0.847411808,0.488328574,-6226,9118,-15166,-1052,-885,-350,611,-101,545,1
624999000,9751,2608,-5420,-0.951729158,0.219348496,0.203305123,0.858677259,0.467191702,-11704,11836,-18012,-902,-383,-197,627,-101,528,1
625019000,4811,3978,-4384,-0.950771134,0.223863255,0.202979762,0.864450026,0.456497189,-21536,14562,-16106,-435,-72,-34,623,-85,559,1
625039000,5123,1845,-4244,-0.952063469,0.219267352,0.202002891,0.868001748,0.450140707,-20954,10264,-15676,-247,274,37,635,-113,538,1
625059000,5555,1192,-4917,-0.954498591,0.21100403,0.199098012,0.872681079,0.442231303,-20170,8866,-16746,-341,453,99,633,-103,557,1
625079000,5072,1352,-6319,-0.957725966,0.198643109,0.195858068,0.877486052,0.433947718,-21246,9080,-19142,-358,628,114,621,-99,542,1
625099000,5646,346,-7234,-0.961470466,0.185738182,0.18988058,0.8816895,0.427983506,-20218,6876,-20552,-285,629,247,647,-109,568,1
625119000,7194,343,-7674,-0.965182152,0.169866666,0.185250414,0.882822763,0.42755886,-17244,6722,-20912,-19,702,244,651,-125,563,1
625139000,8914,1225,-5752,-0.968663357,0.148255449,0.185243827,0.881531797,0.430239435,-13920,8484,-16358,169,903,84,633,-115,572,1
625159000,10151,-1535,-3994,-0.971675977,0.12293002,0.187672391,0.882355753,0.427518217,-11544,3046,-12012,-50,1095,-49,639,-105,552,1
625179000,11308,-2453,-924,-0.974023368,0.102925425,0.187172714,0.886445861,0.419123314,-9308,1190,-5216,-328,925,42,647,-131,598,1
625199000,14540,-4115,2853,-0.976227732,0.08906973,0.182599854,0.893526612,0.405802321,-2940,-2364,2884,-564,827,302,643,-137,592,1
625219000,18265,-4549,4621,-0.978871457,0.077707006,0.172602938,0.90625219,0.380784435,4416,-3534,6866,-1093,897,463,615,-153,621,1
625239000,18909,-133,6283,-0.982189577,0.069506787,0.156174133,0.922202829,0.347775048,5624,4974,10548,-1418,913,457,643,-169,613,1
625259000,19371,961,9246,-0.984360462,0.068243217,0.142046596,0.936023368,0.314896848,6470,6564,16270,-1434,298,539,643,-179,600,1
625279000,19550,1791,8978,-0.986136304,0.077360537,0.124396667,0.949769305,0.27880409,6772,7650,15432,-1562,-141,668,651,-199,617,1
625299000,21008,8270,25202,-0.982636416,0.127945228,0.110391868,0.962022295,0.239191247,9780,20154,-19294,-1684,-1853,461,639,-183,619,1
625319000,6758,20622,1195,-0.988656893,0.084150648,0.096632941,0.970380839,0.209108286,-18910,-21128,-342,-1267,1956,490,635,-181,596,1
625339000,30737,17243,-3845,-0.988974543,0.049444234,0.114600399,0.960088028,0.245082384,29044,-27300,-9288,1611,1275,-569,637,-221,609,1
625359000,17628,-10708,96,-0.98684665,0.03583519,0.135975038,0.935086524,0.320428772,2862,-16968,-928,3307,165,-675,643,-203,619,1
625379000,24695,-11841,3306,-0.983654715,0.01020965,0.160711006,0.911091099,0.374249591,17120,-18434,6314,2458,715,-893,639,-197,638,1
625399000,9602,-11045,-10709,-0.976022597,-0.043184463,0.198292679,0.889293207,0.40809845,-12908,-16096,-20534,1529,1263,-892,619,-181,674,1
625419000,20144,-18788,-13023,-0.973859485,-0.048336182,0.206919271,0.885074588,0.412898159,8370,-30842,-24458,275,192,-300,593,-179,703,1
625439000,21428,-14757,-6752,-0.973255841,-0.047668133,0.209863162,0.898703272,0.380438309,10950,-22686,-11930,-1386,297,21,611,-183,695,1
625459000,25235,7893,-1092,-0.972450789,-0.046625497,0.21401441,0.916299146,0.332850588,18582,22752,-636,-2017,422,2,603,-187,698,1
625479000,28799,-1312,5284,-0.971661432,-0.040735723,0.21881224,0.926944893,0.298108276,25746,4490,11916,-1436,104,-58,603,-173,699,1
625499000,20375,5891,1363,-0.970581383,-0.041611567,0.223632999,0.935968548,0.264186189,8932,19050,4102,-1383,380,-67,597,-177,721,1
625519000,16619,6419,-4082,-0.972669121,-0.057448635,0.209843184,0.940775793,0.257837174,1464,20178,-6454,-302,537,-11,597,-183,709,1
625539000,15675,16,-6482,-0.972374395,-0.082051702,0.203243506,0.938150637,0.272796197,-498,6830,-10580,594,537,59,605,-185,704,1
625559000,15597,-3713,-7371,-0.970562004,-0.105097691,0.20136108,0.935265999,0.284194229,-648,-894,-11612,459,491,128,607,-185,713,1
625579000,14578,-4020,-8155,-0.968231555,-0.127357073,0.19910748,0.934031395,0.289716622,-2630,-1606,-12484,207,472,197,595,-161,738,1
625599000,9907,-2034,-8063,-0.966075659,-0.142489458,0.197670085,0.933966488,0.290305307,-11854,2368,-11444,72,660,117,597,-187,708,1
625619000,6595,-2093,-7927,-0.963186853,-0.162829744,0.195861169,0.934142873,0.29102695,-18376,2190,-10516,87,863,132,619,-203,733,1
625639000,9305,-4463,-6025,-0.960318398,-0.182964066,0.191815714,0.935044412,0.290810226,-12862,-2678,-6050,62,864,229,615,-205,747,1
625659000,16154,-9513,-1348,-0.957841037,-0.191949802,0.195658804,0.937129946,0.281476839,878,-12972,3698,-258,590,376,615,-207,776,1
625679000,16961,-7741,4565,-0.957947874,-0.184245402,0.202410662,0.944324303,0.25058065,2556,-9116,15574,-1116,443,310,603,-213,753,1
625699000,17698,-1144,11935,-0.95759723,-0.180599445,0.207332786,0.953240808,0.208769275,4000,4460,29808,-1692,238,198,607,-203,747,1
625719000,18484,5323,16998,-0.957862712,-0.172948869,0.212641748,0.959054738,0.173209667,5568,17564,-25860,-1429,19,122,589,-205,760,1
625739000,16480,10704,11110,-0.956581065,-0.17480881,0.217106656,0.959779106,0.163498875,1612,28466,27946,-370,187,-43,597,-205,764,1
625759000,11012,11540,5612,-0.960491374,-0.173764775,0.199771629,0.960283045,0.181605516,-9212,30340,17316,820,308,-343,607,-215,757,1
625779000,8441,3652,-2022,-0.957591176,-0.187395277,0.200894944,0.950104013,0.228542743,-14518,13848,2122,1955,204,-348,577,-191,771,1
625799000,8375,-4218,-5607,-0.955739725,-0.201695997,0.19528934,0.938963989,0.27519135,-14590,-2074,-4580,2001,225,-107,575,-213,786,1
625819000,13539,-11077,-4229,-0.952131815,-0.214478798,0.199445527,0.92917427,0.30445163,-4226,-16092,-1466,1342,244,162,573,-225,811,1
625839000,15040,-10058,-1553,-0.950443849,-0.218670517,0.202889311,0.924381509,0.316698356,-1116,-13876,4174,665,218,247,573,-211,807,1
625859000,13040,-6193,-2309,-0.949276848,-0.219385775,0.207558383,0.922064563,0.320497526,-5062,-5852,2624,254,78,106,565,-225,792,1
625879000,17148,-6486,-3893,-0.948772304,-0.218320519,0.211116633,0.92063893,0.322366817,3178,-6242,-626,145,-36,70,569,-225,816,1
625899000,21345,-8989,-2912,-0.950004168,-0.2130991,0.211099248,0.922739312,0.316289835,11558,-11112,1156,-204,-151,124,559,-243,798,1
625919000,25033,-9390,1544,-0.953851972,-0.192644421,0.213787561,0.929591779,0.293396931,18802,-11826,9410,-922,-634,161,595,-269,793,1
625939000,27790,-8308,2912,-0.959441846,-0.156211348,0.219102898,0.939354282,0.255600851,24120,-9490,10966,-1549,-1161,142,569,-275,782,1
625959000,28762,-4144,1789,-0.964779863,-0.105222125,0.227018872,0.948379273,0.211156201,25878,-906,7060,-1819,-1696,1,583,-259,801,1
625979000,27985,1657,-981,-0.967648087,-0.046069745,0.235461558,0.95453996,0.169661237,24226,10966,-416,-1678,-2047,-140,589,-263,755,1
625999000,26327,2470,-4738,-0.967352921,0.008328345,0.242015995,0.957579212,0.140641203,20928,12798,-9724,-1140,-1965,-175,615,-269,735,1
626019000,25992,1506,-7851,-0.965438299,0.049871527,0.245466496,0.958472639,0.128119461,20332,10978,-17322,-453,-1595,-91,615,-267,709,1
626039000,22663,783,-8969,-0.962492432,0.081190895,0.249147921,0.958615417,0.119581906,13776,9648,-20592,-285,-1211,-108,623,-269,702,1
626059000,16926,898,-7428,-0.962825941,0.093908828,0.244255458,0.961060641,0.111004336,2410,9964,-18406,-432,-1008,-94,629,-265,666,1
626079000,14774,-859,-7527,-0.963150013,0.098097673,0.241700539,0.962893222,0.10066375,-1924,6268,-18790,-517,-689,-74,643,-257,665,1
626099000,15090,-221,-5093,-0.96386244,0.103301402,0.236140034,0.965240968,0.089012247,-1322,7414,-13970,-548,-566,-17,633,-239,660,1
626119000,13234,-107,-5291,-0.965354059,0.101916485,0.230487422,0.967574777,0.077084443,-5074,7458,-14372,-564,-352,-10,655,-249,640,1
626139000,9809,592,-5997,-0.964684865,0.106788542,0.229835288,0.968311267,0.064055895,-12006,8652,-15480,-494,-42,29,653,-255,638,1
626159000,9096,1360,-5489,-0.9640742,0.110238736,0.23085306,0.968696745,0.053198423,-13402,10218,-14588,-385,-23,-26,641,-275,646,1
626179000,10204,327,-5408,-0.963390606,0.112617772,0.232824631,0.968886552,0.039660942,-11162,8214,-14508,-487,44,-77,651,-267,631,1
626199000,9788,-263,-5752,-0.963085067,0.112015804,0.23440637,0.968936238,0.025743155,-11986,7086,-15174,-505,179,-63,663,-251,637,1
626219000,9539,-538,-5978,-0.963173579,0.107900282,0.235886829,0.968788836,0.012065863,-12488,6582,-15490,-496,325,-58,647,-253,639,1
626239000,8552,-616,-7611,-0.964256678,0.099273412,0.234986363,0.96899616,-0.001790054,-14500,6398,-18472,-515,520,40,663,-259,626,1
626259000,8126,1722,-7881,-0.966420906,0.086401826,0.230970548,0.969790859,-0.015841717,-15422,10948,-18590,-532,697,171,645,-247,642,1
626279000,8830,4793,-5658,-0.968759492,0.069535218,0.226341307,0.970488567,-0.028580295,-14092,16942,-13588,-479,850,212,667,-267,642,1
626299000,9581,2644,-1082,-0.970754664,0.051138638,0.222292346,0.971041169,-0.038147071,-12654,12514,-3836,-347,878,203,663,-273,689,1
626319000,9791,-320,1309,-0.97185282,0.031367702,0.220720025,0.971022509,-0.045542546,-12272,6536,1596,-254,913,116,655,-267,660,1
626339000,10966,-13,1948,-0.97303291,0.01337461,0.217006184,0.971290443,-0.055676879,-9958,7032,3462,-363,860,203,647,-281,707,1
626359000,16570,-626,2814,-0.975524606,0.00618213,0.205579425,0.972891161,-0.068345608,1204,5596,5584,-417,618,324,643,-287,697,1
626379000,19805,271,4141,-0.977478174,0.006896434,0.195683123,0.973823648,-0.081154738,7614,7112,8250,-422,332,215,639,-295,708,1
626399000,18246,1316,5148,-0.978909232,0.008601271,0.188002844,0.974032409,-0.094335236,4456,8998,10276,-420,370,69,639,-273,745,1
626419000,17439,19,8039,-0.980161622,0.018339923,0.180807445,0.972852662,-0.117043683,2782,6092,15876,-784,274,151,629,-293,736,1
626439000,19986,325,7819,-0.980833249,0.026407881,0.175867162,0.97095436,-0.13732915,7826,6386,14778,-783,-160,245,633,-291,735,1
626459000,17631,3336,5025,-0.983227814,0.039514836,0.159687405,0.970976019,-0.155565025,3086,12202,8984,-640,-116,300,629,-287,734,1
626479000,21159,4847,5505,-0.983434942,0.041544463,0.157497592,0.970049931,-0.162732558,10090,14834,9650,-250,-14,141,615,-311,728,1
626499000,10121,3124,9879,-0.981256533,0.096633969,0.148100769,0.965831131,-0.193489591,-11928,11402,17206,-1090,-1311,-19,613,-299,712,1
626519000,17185,9058,-9099,-0.983071348,0.056979446,0.155465934,0.965790523,-0.187820602,2138,23192,-20052,295,1616,-220,613,-309,721,1
626539004,22852,2984,-5803,-0.981846334,0.020982681,0.170988208,0.97006524,-0.149300672,13506,11548,-12270,1643,1240,-511,617,-293,744,1
626559004,23983,-3708,-376,-0.979783257,0.008184588,0.18346842,0.972136769,-0.118900258,15848,-1438,-1010,1291,324,-428,605,-289,754,1
626579004,18728,-2414,-5780,-0.976736952,-0.04503829,0.193978997,0.972027596,-0.104029426,5436,1556,-10314,586,1805,-455,599,-295,743,1
626599004,12369,612,-5788,-0.972403178,-0.094013857,0.197531847,0.972606661,-0.09195726,-7126,7878,-8814,428,1555,-387,597,-287,802,1
626619004,21576,-6645,-4855,-0.970363621,-0.112682456,0.196311805,0.972921107,-0.088833595,11344,-6896,-6006,174,783,97,583,-295,846,1
626639004,23557,-4026,-3360,-0.969437635,-0.120606158,0.196472249,0.971060513,-0.107177334,15344,-1654,-2766,-691,496,150,595,-283,831,1
626659004,21875,-2802,-1360,-0.96849031,-0.125586569,0.197468661,0.967420142,-0.133379079,12004,826,1406,-1024,448,161,577,-287,836,1
626679004,19623,-850,-3545,-0.96790611,-0.134232529,0.194531922,0.964097399,-0.158772381,7546,4784,-2728,-999,537,138,587,-281,810,1
626699004,16410,-1018,-5505,-0.966087291,-0.149622643,0.192389434,0.962303722,-0.171853635,1160,4356,-6274,-529,562,75,583,-267,829,1
626719004,16297,-591,-6467,-0.964035997,-0.16821024,0.187303495,0.962057365,-0.178983305,998,5066,-7626,-273,599,141,593,-281,849,1
626739004,15565,-626,-6524,-0.961167656,-0.188649423,0.181665801,0.962467946,-0.182020679,-382,4804,-7066,-103,652,150,591,-291,843,1
626759004,15845,-1749,-7036,-0.957432244,-0.210814957,0.176522399,0.963194551,-0.183191674,284,2328,-7356,-10,714,196,577,-283,865,1
626779004,15946,-316,-5936,-0.954235548,-0.230211172,0.168261004,0.96416921,-0.185063157,612,5002,-4444,-7,700,231,589,-285,885,1
626799004,15715,-1108,-5596,-0.950981282,-0.247635746,0.161182202,0.965083506,-0.186341124,254,3136,-3162,33,649,244,575,-279,868,1
626819004,14377,-156,-4336,-0.9479587,-0.263444562,0.1533923,0.965618931,-0.190026496,-2298,4834,-66,-54,671,237,573,-287,859,1
626839004,14369,-2074,-3052,-0.945341498,-0.275476741,0.148664251,0.965461463,-0.194883155,-2218,714,2988,-72,636,286,579,-285,925,1
626859004,14991,-3482,-2779,-0.942734061,-0.284714246,0.147010689,0.963932322,-0.202977413,-896,-2238,3876,-208,592,310,579,-303,877,1
626879004,15962,-1930,-2551,-0.941133024,-0.291597867,0.143332458,0.96160146,-0.2158734,1126,844,4586,-401,557,330,569,-307,899,1
626899004,14988,133,-2383,-0.939429492,-0.299975216,0.137026561,0.959332017,-0.229507135,-746,4882,5204,-435,630,301,577,-307,899,1
626919004,15095,710,-1744,-0.937357403,-0.309330659,0.129943171,0.957406476,-0.241163403,-446,5836,6830,-351,717,274,565,-303,934,1
626939004,15346,767,-811,-0.93524782,-0.318471316,0.122556221,0.955782654,-0.25109552,148,5704,9062,-267,784,271,551,-305,932,1
626959004,15055,270,-224,-0.933888048,-0.32474184,0.116176971,0.954327503,-0.259431811,-378,4464,10484,-197,702,257,565,-295,950,1
626979004,16552,-704,134,-0.932771297,-0.330089305,0.11045999,0.953605289,-0.264748592,2658,2266,11394,-55,677,264,561,-297,953,1
626999004,17561,-451,-600,-0.931473952,-0.335644517,0.104221573,0.953492673,-0.267591001,4708,2582,10082,37,634,240,537,-299,945,1
627019004,17356,1060,139,-0.930517871,-0.340278285,0.09672963,0.953448657,-0.270295108,4352,5434,11750,29,650,198,559,-303,958,1
627039004,15855,1102,3608,-0.932704363,-0.335960435,0.089963369,0.952904865,-0.274227381,1340,5290,18720,-9,496,189,537,-297,993,1
627059004,15392,-1853,8421,-0.941638775,-0.310566582,0.089519244,0.950994812,-0.280970491,160,-822,27698,-117,-165,202,549,-303,981,1
627079004,26397,-6238,6900,-0.948608048,-0.290150084,0.085247902,0.950152189,-0.285112457,21704,-9686,23314,-60,-844,281,559,-315,995,1
627099004,28137,-17,4341,-0.961493507,-0.244823225,0.084092447,0.947780184,-0.292901315,24746,2720,16728,-259,-1871,198,567,-317,979,1
627119004,23833,8751,-943,-0.973518323,-0.194233829,0.080493607,0.94461913,-0.304002697,15744,20138,4504,-374,-2062,311,571,-317,977,1
627139004,23386,4302,143,-0.98336206,-0.141138459,0.073366693,0.944048788,-0.307521263,14522,11008,4938,-42,-2168,373,605,-323,930,1
627159004,22426,822,-2530,-0.989132458,-0.094784979,0.072919072,0.948721061,-0.29320297,12418,4034,-1932,660,-1931,5,627,-337,894,1
627179004,22618,-645,-7540,-0.990963234,-0.063674735,0.081498576,0.955956915,-0.266115965,12742,1380,-12974,1151,-1333,-380,659,-339,867,1
627199004,21312,-2523,-11746,-0.990503149,-0.047111588,0.098313339,0.96328697,-0.232690372,10152,-1828,-21932,1399,-780,-703,667,-349,902,1
627219004,19382,-4800,-14276,-0.988227718,-0.038120873,0.122501338,0.968096253,-0.199364813,6364,-5594,-27288,1364,-494,-980,671,-337,862,1
627239004,16917,-6969,-14278,-0.985016316,-0.025271304,0.149573954,0.969141036,-0.175081372,1544,-9054,-27716,984,-637,-1070,683,-319,862,1
627259004,14822,-5873,-12140,-0.981235713,-0.018149648,0.176295736,0.966366753,-0.168491352,-2542,-6150,-24266,170,-1035,-834,693,-313,835,1
627279004,12948,-3948,-10010,-0.978670664,0.001218528,0.191671728,0.961203951,-0.181122668,-6198,-1734,-20632,-631,-1389,-456,695,-313,843,1
627299004,11651,-2576,-8275,-0.97703981,0.021825042,0.199201385,0.954897787,-0.204743017,-8718,1320,-17824,-1075,-1337,-242,711,-293,800,1
627319004,11656,-2468,-7422,-0.975592146,0.037790744,0.203888887,0.94754776,-0.231814522,-8652,1694,-16614,-1220,-1072,-165,747,-295,780,1
627339004,10681,-2604,-6664,-0.973450912,0.063496618,0.206641666,0.937580226,-0.265296523,-10560,1522,-15386,-1374,-738,-122,733,-291,778,1
627359004,9807,-2553,-7563,-0.971417431,0.085883841,0.20837495,0.92552628,-0.302987292,-12234,1678,-17926,-1549,-572,-127,743,-303,760,1
627379004,9948,-2083,-8175,-0.969473157,0.107171725,0.207760039,0.91021066,-0.346105607,-11892,2598,-19842,-1805,-471,-91,747,-279,749,1
627399004,10541,621,-6859,-0.967570759,0.126687279,0.205874116,0.891959544,-0.391294004,-10646,7944,-17850,-1925,-374,-92,745,-279,724,1
627419004,11812,3031,-6106,-0.970891746,0.123191593,0.192648403,0.878294596,-0.427699672,-8056,12690,-16770,-1645,-159,-73,741,-295,716,1
627439004,12563,4633,-5052,-0.974594293,0.115553213,0.177422839,0.866170131,-0.457456738,-6684,15496,-14312,-1346,67,-57,757,-279,707,1
627459004,12572,5487,-3212,-0.978562966,0.103223726,0.161198503,0.856459357,-0.480430849,-6816,16740,-10100,-1022,346,-35,757,-297,733,1
627479004,13335,5738,-459,-0.981669582,0.0924391,0.147475115,0.848781971,-0.497760067,-5414,16802,-4052,-729,457,-97,731,-293,716,1
627499004,14218,3348,1378,-0.983080557,0.083473055,0.143363209,0.844445376,-0.506315369,-3728,11734,34,-311,462,-248,753,-293,737,1
627519004,14536,2250,2048,-0.983766161,0.076337157,0.142655676,0.844580837,-0.506377177,-3130,9440,1656,89,386,-260,753,-285,718,1
627539004,15202,1052,2335,-0.984106384,0.067886835,0.144135151,0.84572636,-0.503943816,-1822,7016,2532,195,451,-247,749,-285,740,1
627559004,16569,232,1956,-0.984293703,0.060479915,0.145803179,0.844659138,-0.5051632,902,5380,1988,8,401,-203,745,-283,734,1
627579004,17182,315,1746,-0.984699219,0.059101522,0.143763393,0.842207799,-0.509874986,2118,5482,1592,-151,155,-63,755,-283,751,1
627599004,17120,545,2219,-0.985565552,0.063260911,0.136059119,0.838589309,-0.517904716,1962,5700,2428,-300,-24,151,755,-289,756,1
627619004,18391,577,3526,-0.986063521,0.07232075,0.127611259,0.83344901,-0.528079504,4480,5480,4796,-401,-150,183,751,-297,707,1
627639004,18728,51,4097,-0.985600397,0.085065661,0.123254146,0.827664778,-0.537927331,5160,4252,5536,-397,-287,56,747,-293,749,1
627659004,19087,-1476,3899,-0.984394642,0.095733296,0.125914323,0.825657254,-0.540595429,5912,1210,4762,-53,-282,-114,759,-295,729,1
627679004,16404,-184,3113,-0.983111085,0.105580425,0.128082343,0.827329945,-0.537442841,596,3932,2846,226,-310,-154,785,-281,733,1
627699004,14839,126,3803,-0.981612721,0.117532192,0.129272316,0.831199657,-0.531103797,-2488,4612,3884,394,-356,-118,755,-283,714,1
627719004,17223,-3326,6157,-0.97708866,0.147043666,0.134195168,0.830861051,-0.530477591,2390,-2316,7682,113,-979,-71,771,-297,700,1
627739004,7658,571,-7342,-0.980201233,0.122805176,0.135231122,0.828164984,-0.534380028,-16810,5564,-18702,-137,1047,-8,763,-291,710,1
627759004,22392,-887,-5248,-0.98207036,0.100405645,0.139394894,0.833729181,-0.524562512,12596,2782,-13782,521,879,-58,749,-281,721,1
627779004,20525,-1740,1877,-0.981968429,0.096133737,0.143146295,0.826271284,-0.535244772,8870,1196,606,-460,269,-141,761,-279,731,1
627799004,16353,-2841,219,-0.984031498,0.068386188,0.144499999,0.817038674,-0.54889706,450,-972,-1814,-617,1234,-35,759,-297,759,1
627819004,14075,7164,-3841,-0.987905443,0.029178306,0.129497661,0.811515234,-0.560618706,-4152,19092,-8884,-510,1391,-20,761,-287,742,1
627839004,14857,1136,-2540,-0.988925964,0.007006412,0.124157026,0.811625838,-0.56167979,-2670,6524,-5480,-9,719,38,761,-297,769,1
627859004,16989,-2961,-980,-0.988668643,-0.007256212,0.125614167,0.809800334,-0.563907595,1574,-1830,-1736,-72,598,20,767,-279,776,1
627879004,17245,-1840,-2319,-0.988145038,-0.026992844,0.126663818,0.806395695,-0.568555878,2104,480,-3856,-201,726,0,771,-287,776,1
627899004,15990,-3989,-3714,-0.986619461,-0.048836896,0.131498884,0.803315621,-0.571834126,-376,-3784,-5996,-161,727,5,759,-293,784,1
627919004,14772,-5437,-5069,-0.984177839,-0.073661879,0.137707841,0.799230933,-0.576131918,-2756,-6570,-7956,-228,780,71,755,-299,790,1
627939004,15667,-2526,-4938,-0.982091621,-0.098019052,0.136592412,0.790502926,-0.588164406,-878,-608,-6856,-579,861,186,751,-307,792,1
627959004,15969,1328,-3686,-0.980742522,-0.119395509,0.127790311,0.780129306,-0.603491791,-196,7034,-3560,-704,871,255,741,-295,828,1
627979004,16020,1816,-2800,-0.979122184,-0.140753986,0.117684738,0.7730617,-0.614540728,-30,7700,-1018,-463,921,267,753,-297,828,1
627999004,15199,81,-2727,-0.976135939,-0.164124519,0.11102347,0.771599025,-0.617509872,-1586,3908,-84,-62,982,209,741,-317,839,1
628019004,15738,-1088,-2426,-0.972348923,-0.186619837,0.107802828,0.772023218,-0.617507787,-388,1364,1278,82,964,174,743,-313,852,1
628039004,16167,-1305,-1798,-0.968468919,-0.206953116,0.104886079,0.773535579,-0.616115429,618,846,3284,157,975,129,729,-299,875,1
628059004,15428,-1890,-3001,-0.963004163,-0.231526973,0.103016969,0.778532501,-0.610141911,-704,-416,1604,379,1032,73,741,-313,896,1
628079004,15298,-2883,-4564,-0.95724689,-0.25436219,0.102840535,0.782973075,-0.604663605,-790,-2474,-818,350,911,87,745,-309,915,1
628099004,15708,-1792,-4564,-0.952108996,-0.273487369,0.100332009,0.784931321,-0.602455441,212,-304,-164,191,814,131,711,-319,922,1
628119004,15682,-1545,-3282,-0.948134825,-0.287882045,0.097062633,0.784124449,-0.604012564,318,86,2954,33,743,206,719,-323,920,1
628139004,17601,-1789,-3296,-0.946565798,-0.294302674,0.093602432,0.781841656,-0.607640687,4218,-524,3158,-56,443,252,711,-329,919,1
628159004,14499,-1999,-1387,-0.945447972,-0.297708252,0.093082063,0.778107263,-0.612293784,-1928,-996,7178,-138,440,201,719,-337,929,1
628179004,15871,-2740,-1127,-0.943100903,-0.304565066,0.095113561,0.772729415,-0.618848043,902,-2444,7950,-247,631,173,721,-333,934,1
628199004,16440,-1759,-1227,-0.940308331,-0.312416987,0.096562009,0.766435206,-0.626280967,2136,-372,8012,-313,691,140,709,-325,975,1
628219004,16072,-1131,-1728,-0.938278783,-0.318230951,0.097130095,0.761025373,-0.632725382,1468,942,7172,-267,566,112,715,-341,946,1
628239004,15223,353,-1082,-0.936163034,-0.324771049,0.09562387,0.756612264,-0.638188511,-138,3948,8716,-216,641,72,715,-343,986,1
628259004,15919,274,-1103,-0.933957361,-0.33133452,0.094410303,0.75392399,-0.641520072,1330,3742,8896,-112,644,34,703,-345,965,1
