timestamp,ax,ay,az,roll1,roll2,pitch,yaw1,yaw2,fx,fy,fz,gx,gy,gz,mx,my,mz,step
923419620,15305,1196,-3400,-0.915498234,-0.369405419,-0.127437233,0.726711506,0.67344789,676,-1822,5450,-49,-272,19,903,-575,877,2
923439620,16321,1670,-3581,-0.920586538,-0.357044147,-0.126574546,0.727136057,0.673160238,2532,-822,4676,-26,-323,44,873,-585,860,2
923459620,17027,1821,-3614,-0.925623685,-0.344075967,-0.126367985,0.726611344,0.673780402,3774,-508,4178,32,-347,42,889,-567,858,2
923479620,17420,1688,-3384,-0.930616122,-0.330899075,-0.124870243,0.727050394,0.673566168,4394,-736,4214,-33,-354,22,887,-571,845,2
923499620,17486,1185,-2811,-0.93592491,-0.316766083,-0.122431056,0.728222039,0.672750853,4362,-1682,4908,-73,-380,25,907,-575,858,2
923519620,17305,525,-1897,-0.941826871,-0.299976522,-0.118933017,0.73002783,0.671365416,3812,-2922,6222,-114,-454,38,893,-575,830,2
923539620,17649,760,-777,-0.948633095,-0.27940117,-0.115956532,0.732159382,0.669570219,4286,-2338,7826,-134,-566,40,923,-579,838,2
923559620,18889,581,229,-0.956284292,-0.254276605,-0.111959747,0.734833263,0.667318819,6516,-2576,9046,-173,-723,15,889,-583,805,2
923579620,18616,44,693,-0.964221835,-0.225599743,-0.106067464,0.73856945,0.664128944,5702,-3480,9034,-237,-872,-24,911,-587,780,2
923599620,18944,-882,1621,-0.973850057,-0.184497619,-0.098180435,0.744118888,0.65907906,6030,-5116,9558,-347,-1383,-40,913,-577,755,2
923619620,13408,1373,1864,-0.982511133,-0.134672642,-0.09361,0.76055347,0.640586553,-5368,-310,8432,-1043,-1787,10,903,-571,740,2
923639620,16807,5631,-2413,-0.983701544,-0.123874189,-0.096672513,0.767023098,0.632336877,1354,8318,-782,-425,-462,-59,917,-573,725,2
923659620,17841,3196,-2215,-0.986643281,-0.101946607,-0.093757434,0.769487839,0.629797861,3338,3404,-1108,-147,-901,-172,921,-575,716,2
923679620,15147,4498,-5848,-0.988099463,-0.093491958,-0.088490907,0.766722925,0.633992447,-2124,6278,-8888,204,-608,-426,911,-561,692,2
923699620,15119,5252,-4614,-0.989214327,-0.084409244,-0.084241009,0.759969322,0.642633265,-2220,7978,-6648,433,-530,-469,907,-565,692,2
923719620,15329,2481,-2809,-0.990877807,-0.07010594,-0.077680704,0.752402056,0.652320348,-1832,2498,-3420,490,-631,-372,917,-559,668,2
923739620,16473,457,-3342,-0.9921993,-0.05856495,-0.07090531,0.744489295,0.66215804,424,-1452,-4900,524,-561,-223,927,-563,641,2
923759620,15979,-429,-3358,-0.993211351,-0.049140716,-0.063523974,0.739319276,0.668684704,-596,-3026,-5256,355,-507,-180,927,-561,619,2
923779620,15682,-1290,-2950,-0.994190341,-0.039707074,-0.05501608,0.738856131,0.669963112,-1214,-4512,-4742,69,-516,-155,915,-549,611,2
923799620,14918,-1051,-1402,-0.995060803,-0.026144149,-0.047390488,0.743120335,0.665786833,-2772,-3770,-2012,-228,-604,-127,925,-555,617,2
923819620,14839,80,-223,-0.99564825,-0.010201581,-0.043312571,0.750152916,0.658123417,-2950,-1272,-114,-408,-629,-109,931,-553,575,2
923839620,14907,1035,-26,-0.995766716,0.004453262,-0.040144489,0.757545993,0.649703249,-2824,762,-194,-443,-570,-105,911,-553,571,2
923859620,14314,1079,343,-0.995789666,0.017132752,-0.037605323,0.765341112,0.640617786,-4006,938,130,-468,-486,-91,911,-547,552,2
923879620,14589,1563,1125,-0.995570404,0.029112931,-0.037767572,0.772322586,0.632142564,-3452,1956,1340,-430,-403,-54,915,-569,575,2
923899620,14610,1988,1896,-0.995121712,0.041105328,-0.039593789,0.778077543,0.624896049,-3398,2772,2530,-362,-355,-22,915,-563,557,2
923919620,14259,2559,2453,-0.994626096,0.050273638,-0.04269889,0.781655313,0.620198127,-4088,3850,3374,-227,-197,-14,913,-551,550,2
923939620,14621,3359,4302,-0.993800392,0.061934408,-0.047072248,0.784313111,0.616489051,-3344,5342,6786,-181,-175,-8,913,-555,527,2
923959620,15330,2636,4995,-0.992677394,0.07622843,-0.049321783,0.78694861,0.612878524,-1894,3768,7720,-180,-262,-29,919,-553,536,2
923979620,15734,2225,4207,-0.991812026,0.088668641,-0.048014817,0.788308444,0.6112657,-1048,2964,5668,-66,-267,-137,923,-559,522,2
923999620,14804,2587,3710,-0.990892608,0.100144913,-0.044845225,0.786980454,0.613215318,-2884,3828,4276,127,-247,-241,913,-557,522,2
924019620,13452,370,4109,-0.989674255,0.115686631,-0.034719631,0.783496395,0.618350824,-5548,-404,4602,300,-361,-344,909,-553,511,2
924039620,14322,-915,4245,-0.987575328,0.136340227,-0.017889759,0.779441005,0.624206688,-3742,-2494,4170,368,-610,-518,905,-527,511,2
924059620,15312,17,4722,-0.984157708,0.160428815,0.000664953,0.776434483,0.628193175,-1654,56,4326,323,-773,-687,915,-541,491,2
924079620,16358,1318,4748,-0.979349371,0.187423848,0.01602953,0.769852154,0.636091173,598,3252,3448,554,-964,-625,909,-519,474,2
924099620,16889,2318,3874,-0.974244565,0.21154689,0.027366295,0.759378538,0.648236148,1846,5690,834,783,-958,-483,889,-507,467,2
924119620,10761,4853,8298,-0.95944595,0.272124074,0.022684452,0.762519466,0.644716268,-10022,10800,8030,-101,-2059,-250,907,-509,413,2
924139624,5603,5866,-5809,-0.963090381,0.257594971,0.032956685,0.754928062,0.653188078,-20358,12812,-20058,571,638,-251,883,-481,375,2
924159624,10201,3461,-8676,-0.975271698,0.206020229,0.040462708,0.732261587,0.678400179,-11392,8512,-24822,1476,1205,-257,893,-497,419,2
924179624,23894,-4439,4343,-0.974505216,0.204732418,0.055069919,0.704253197,0.706403732,15828,-7070,1994,1698,22,-228,895,-457,447,2
924199624,23685,-18676,6672,-0.973487636,0.206107629,0.067025728,0.699898852,0.70971654,15468,30380,6588,329,-35,-399,885,-451,396,2
924219624,17358,1065,-319,-0.982847372,0.157656899,0.059398682,0.70640102,0.703913435,2526,4194,-5960,-377,1861,126,907,-443,397,2
924239624,12312,6184,-4933,-0.990016773,0.105301902,0.055236208,0.704896307,0.705825141,-7754,14634,-13720,137,1666,-352,917,-451,453,2
924259624,13362,344,-5324,-0.993248878,0.061821034,0.062510826,0.683220334,0.72638534,-5804,2814,-13082,1230,1220,-257,917,-437,464,2
924279624,18281,-7016,-4377,-0.993445374,0.026052935,0.077715564,0.667858504,0.73907618,3978,-11760,-9830,807,1160,-213,923,-417,522,2
924299624,17999,-4948,-4420,-0.993075259,-0.008300457,0.084240448,0.667573549,0.738607582,3432,-7310,-8782,-12,1174,-18,925,-415,489,2
924319624,16341,1292,-5448,-0.992662655,-0.0437374,0.077579789,0.673354393,0.734084455,148,5272,-9730,-304,1175,128,923,-415,542,2
924339624,17055,-2642,-5378,-0.990594346,-0.078216918,0.074305945,0.676958032,0.731058961,1616,-2922,-8400,-184,1200,266,943,-425,579,2
924359624,17293,-2038,-5192,-0.987572141,-0.111261727,0.069587955,0.681071848,0.727647869,2190,-1840,-6902,-194,1198,300,935,-437,582,2
924379624,16315,-789,-5050,-0.983464688,-0.145995487,0.061918018,0.685849458,0.723835062,374,466,-5458,-204,1295,354,937,-451,604,2
924399624,15634,-1243,-6222,-0.976942778,-0.186661143,0.054085076,0.68864733,0.721810024,-792,-734,-6498,-75,1495,393,921,-445,615,2
924419624,14922,-2742,-7283,-0.967024293,-0.233384807,0.048438583,0.689910924,0.721011316,-1912,-4010,-7106,27,1728,409,929,-443,668,2
924439624,14131,-2330,-6879,-0.953756496,-0.283071952,0.04140214,0.693528578,0.717938108,-3062,-3408,-4606,-70,1949,484,921,-459,670,2
924459624,14130,-1654,-5928,-0.937300567,-0.333780633,0.032018278,0.697713349,0.714308305,-2502,-2334,-934,-53,2154,554,923,-463,742,2
924479624,14123,-1557,-4935,-0.918132301,-0.38359274,0.022235501,0.700440444,0.711992359,-1844,-2466,2792,63,2290,548,939,-477,795,2
924499624,14004,-645,-2754,-0.897523347,-0.429903343,0.01166071,0.703449264,0.70928975,-1320,-940,8838,68,2409,525,921,-497,812,2
924519624,15778,-991,-319,-0.879363194,-0.465746142,0.0042381,0.711564083,0.701187713,2926,-1902,15052,-225,2230,576,887,-513,878,2
924539624,17043,-3303,-473,-0.862686671,-0.495640585,0.004740357,0.720546257,0.691890238,6030,-6632,15724,-339,2008,467,871,-513,919,2
924559624,18911,-2897,-2799,-0.848195421,-0.519926045,0.009033071,0.728190074,0.683771757,10216,-5638,11784,-368,1666,263,871,-523,951,2
924579624,19609,-2217,-3899,-0.845306415,-0.52449345,0.015689844,0.737780128,0.673250182,11696,-4016,9686,-549,695,209,871,-507,967,2
924599624,18030,-228,-2863,-0.846082231,-0.523052115,0.019950154,0.744465591,0.665689236,8534,204,11740,-419,459,92,855,-511,972,2
924619624,16089,1765,-3066,-0.843609292,-0.526985977,0.016718939,0.745731099,0.664330428,4722,4198,11440,-52,674,53,851,-509,989,2
924639624,15391,1644,-4727,-0.83741948,-0.536911547,0.01040923,0.743198758,0.667313768,3480,3738,8366,216,842,44,843,-531,988,2
924659624,14308,7,-4866,-0.832108397,-0.545122797,0.007215171,0.739292543,0.671705311,1480,258,8340,282,744,-2,835,-517,1015,2
924679624,13866,-2215,-4715,-0.827761168,-0.551481159,0.009396058,0.735282473,0.676062077,744,-4260,8856,263,668,-34,847,-537,1005,2
924699624,14901,-3036,-5674,-0.823246647,-0.558355577,0.01173718,0.731164752,0.680540441,2948,-5860,7130,289,649,-11,813,-529,1019,2
924719624,16622,-2269,-6489,-0.819268161,-0.564125502,0.010105143,0.726291297,0.685782423,6520,-4322,5696,374,604,36,829,-537,1046,2
924739624,17323,-572,-5777,-0.817985222,-0.565946201,0.004599789,0.720519122,0.691916732,7996,-1020,7220,442,477,45,833,-551,1040,2
924759624,17508,1075,-4562,-0.819775663,-0.563469434,-0.003521845,0.714901771,0.697768949,8344,2090,9612,433,332,57,823,-557,1036,2
924779624,18225,1141,-3819,-0.822768738,-0.558898959,-0.012028841,0.708826879,0.703859163,9698,1936,10990,457,291,69,821,-567,1021,2
924799624,21210,170,-2639,-0.819901805,-0.562947012,-0.020835886,0.70068825,0.711815318,15548,-342,13166,599,248,62,839,-571,1028,2
924819624,22530,380,-768,-0.819647901,-0.562817432,-0.030541247,0.690803252,0.721101863,18196,-240,16908,691,57,40,839,-577,1022,2
924839624,25193,95,3875,-0.826547846,-0.55211091,-0.040935101,0.680849429,0.730051272,23296,-1150,25842,702,-458,71,845,-593,1007,2
924859624,24767,1254,9275,-0.843683818,-0.525305266,-0.045231816,0.678108068,0.732348125,21876,1028,-29760,232,-1247,97,857,-591,949,2
924879624,18153,9694,2683,-0.863753496,-0.490455458,-0.057463879,0.66650896,0.742106702,7984,17506,21460,799,-1563,140,869,-587,927,2
924899624,21008,1554,1411,-0.888512896,-0.441966685,-0.073410637,0.640423845,0.763456073,12866,702,17352,1528,-2085,-45,887,-615,859,2
924919624,23535,-2263,-10530,-0.909430793,-0.395474048,-0.084803718,0.600375313,0.794352226,17232,-7304,-8050,2074,-1874,-426,897,-615,801,2
924939624,24738,-222,-18591,-0.92551408,-0.355876254,-0.087262599,0.557863943,0.824624119,19112,-3300,-25474,2011,-1516,-689,905,-607,740,2
924959624,25066,-348,-17276,-0.941291412,-0.316040972,-0.072920353,0.539451668,0.838215074,19268,-3084,-24174,689,-1632,-834,917,-591,670,2
924979624,23138,-4470,-14077,-0.958554294,-0.264369018,-0.052310818,0.532759273,0.844025498,14834,-10654,-19456,106,-2151,-875,925,-579,628,2
924999624,20829,-4688,-12043,-0.973789597,-0.20644984,-0.03057443,0.533931153,0.844350619,9714,-10378,-17286,-228,-2397,-820,903,-551,550,2
925019624,20021,-401,-12882,-0.984746559,-0.149721527,-0.013110559,0.543310583,0.838787243,7744,-1232,-20828,-548,-2319,-586,899,-531,502,2
925039624,17020,2050,-12613,-0.991527218,-0.097822286,0.00330996,0.555254927,0.830998322,1522,4208,-21994,-646,-2089,-558,889,-531,433,2
925059624,13530,1812,-11184,-0.994391784,-0.067978088,0.015996907,0.565472061,0.823981678,-5572,4260,-20696,-541,-1885,-581,879,-521,418,2
925079624,11641,-76,-10228,-0.995404534,-0.044715196,0.030387436,0.574419675,0.817328928,-9380,862,-19582,-490,-1644,-549,847,-531,354,2
925099624,10784,-2531,-9666,-0.995531237,-0.025740931,0.046912615,0.589006985,0.806056192,-11088,-3658,-19098,-779,-1470,-452,837,-513,321,2
925119624,8261,-2662,-10119,-0.994881986,-0.01295908,0.062233899,0.609023778,0.789899644,-16112,-3438,-20524,-1090,-1316,-388,817,-519,286,2
925139624,6506,278,-11271,-0.994053433,0.017802443,0.069970742,0.635013314,0.768310366,-19592,2848,-23100,-1366,-1106,-283,785,-541,264,2
925159624,6164,1773,-10174,-0.992903028,0.046354799,0.074925934,0.65908315,0.747202605,-20222,6000,-21858,-1279,-1029,-208,781,-539,249,2
925179624,6569,2156,-9718,-0.991420895,0.068188068,0.07822073,0.678434702,0.729233338,-19362,6874,-21664,-1050,-765,-163,771,-561,247,2
925199624,6334,3559,-10061,-0.990315834,0.081984362,0.079665866,0.694156835,0.714055797,-19788,9726,-22808,-866,-454,-92,779,-577,230,2
925219624,5234,5373,-8209,-0.989762669,0.087943276,0.080123781,0.705696031,0.70253484,-21968,13368,-19302,-645,-149,-43,767,-601,253,2
925239624,5811,5303,-3277,-0.988846391,0.099094123,0.07886968,0.715237603,0.692913704,-20784,13190,-9802,-540,-371,31,751,-595,245,2
925259624,9565,942,333,-0.986842679,0.119375329,0.076788973,0.724577883,0.683331665,-13212,4398,-3244,-534,-746,56,735,-637,224,2
925279624,16394,1876,2242,-0.98407951,0.144879093,0.069011711,0.733994801,0.673994943,546,6188,-266,-533,-972,55,709,-643,225,2
925299624,22213,891,8258,-0.980739906,0.166126892,0.069656704,0.741753183,0.665332697,12282,4064,11072,-448,-803,-67,701,-651,197,2
925319624,22647,1736,13612,-0.977371192,0.182887031,0.076263531,0.746363174,0.659429811,13266,5968,21230,-236,-634,-285,683,-663,175,2
925339624,20093,-393,18754,-0.974651374,0.195649205,0.079627031,0.756739467,0.647013931,8242,1822,31098,-605,-437,-226,685,-651,188,2
925359624,24150,-1586,21088,-0.970667526,0.215029534,0.078852766,0.769107526,0.632263234,16486,-588,-30406,-758,-705,-99,649,-691,170,2
925379624,23198,4610,14605,-0.967581488,0.228589898,0.079522499,0.771397807,0.629385388,14688,11824,21718,-124,-514,-29,657,-681,179,2
925399624,21237,5831,11036,-0.963235723,0.243706351,0.087488691,0.76415357,0.63715307,10906,14526,14086,509,-635,-183,619,-691,168,2
925419624,6891,5421,6046,-0.956851365,0.263847096,0.098952247,0.766563807,0.632529996,-17578,14080,3446,-68,-799,-472,605,-685,137,2
925439624,13945,-63,-3364,-0.966753781,0.216585033,0.117393608,0.747609615,0.65211045,-3688,3810,-14242,1248,1345,-554,607,-667,145,2
925459624,8062,2830,-13815,-0.978436042,0.146730406,0.126262837,0.723271046,0.677515661,-15796,9996,32252,1395,1682,-328,615,-651,152,2
925479624,10803,-4855,-15554,-0.982270759,0.090945479,0.146959621,0.699661147,0.698017221,-10536,-5078,30644,1211,1158,-447,631,-639,155,2
925499624,15544,-6442,-12760,-0.982787814,0.062619662,0.155116549,0.689926635,0.705792582,-1138,-7818,-27558,529,1145,-265,637,-627,155,2
925519624,17361,-4353,-11190,-0.983598845,0.03292281,0.158863971,0.690320088,0.7046063,2484,-3520,-23458,-22,1267,-123,651,-607,164,2
925539624,17062,-5256,-7947,-0.983533923,-0.009030767,0.162946171,0.695403285,0.69873262,1872,-5312,-15990,-372,1332,9,657,-627,189,2
925559624,16741,-323,-5813,-0.983325731,-0.048322264,0.155667565,0.707457395,0.688094361,1250,4564,-10306,-690,1430,187,693,-637,250,2
925579624,17165,1222,-5920,-0.981975187,-0.090243228,0.143411505,0.721441643,0.675995154,2140,7328,-9100,-758,1598,334,687,-641,238,2
925599624,15585,1964,-4862,-0.978955287,-0.132537508,0.128855703,0.732832719,0.666494889,-918,8380,-5528,-575,1665,393,701,-687,298,2
925619624,15704,114,-4374,-0.973447466,-0.175189186,0.117383433,0.738576895,0.662186395,-510,4188,-3082,-231,1728,388,701,-673,292,2
925639624,15376,-2594,-4225,-0.965269061,-0.218209106,0.111595536,0.741394686,0.660024842,-900,-1554,-1294,-75,1832,310,739,-695,339,2
925659624,15143,-4687,-3950,-0.954164771,-0.262411566,0.110514975,0.744908689,0.656216351,-1016,-5932,738,-123,1945,335,747,-713,369,2
925679624,15853,-2578,-2772,-0.943233224,-0.300613301,0.105719536,0.753812708,0.646713942,814,-1750,4458,-398,1886,429,755,-725,396,2
925699624,15315,90,-1519,-0.932757907,-0.333939619,0.097471898,0.764124267,0.635761246,140,3472,8146,-464,1825,419,757,-731,430,2
925719624,14519,-1123,114,-0.921506407,-0.365253422,0.090983153,0.767801249,0.632264694,-1036,742,12564,-45,1879,326,761,-749,436,2
925739624,15898,-2499,356,-0.906984549,-0.400679983,0.085754549,0.767469421,0.63337872,2218,-2264,14252,214,2114,280,779,-775,513,2
925759624,16217,-2999,-779,-0.89296478,-0.431412162,0.083859197,0.768870704,0.631968461,3318,-3354,12940,67,1889,234,773,-763,510,2
925779624,16023,-577,-2828,-0.878162505,-0.461108107,0.079658941,0.768887335,0.632451838,3396,1496,9742,107,1768,118,765,-765,568,2
925799624,15828,2062,-4015,-0.86443869,-0.487510949,0.070808087,0.766120547,0.6368632,3458,6632,8176,279,1554,26,779,-777,574,2
925819624,14742,2284,-6449,-0.84831566,-0.515959639,0.062355925,0.761736099,0.643007051,1756,6808,4128,336,1514,-47,777,-775,603,2
925839624,14367,1756,-7546,-0.830010073,-0.545825008,0.053461536,0.756123764,0.650455011,1584,5420,2886,430,1562,-37,791,-777,624,2
925859624,14525,-1495,-6713,-0.812781682,-0.571243117,0.049771237,0.75183372,0.655705696,2506,-1404,5456,365,1497,40,787,-791,647,2
925879624,14328,-4274,-5919,-0.799111469,-0.589748802,0.054374206,0.751936642,0.655228984,2590,-6978,7690,57,1264,93,779,-779,693,2
925899624,14918,-4230,-2768,-0.792024866,-0.598387429,0.063192938,0.756202057,0.649489751,4126,-6602,14422,-247,1038,110,761,-799,674,2
925919624,17937,-1278,-407,-0.790775023,-0.599854426,0.065113242,0.759641699,0.645257203,10312,-440,19302,-157,850,94,775,-807,698,2
925939624,20260,110,-2723,-0.791706285,-0.599367024,0.056658415,0.756441662,0.649795828,14872,2130,14580,388,592,90,755,-815,725,2
925959624,21625,-1198,-4293,-0.787320253,-0.605813164,0.048352092,0.751085242,0.656680955,17446,-810,11266,500,338,82,757,-813,729,2
925979624,21695,-1891,-2066,-0.784257118,-0.610153273,0.042723632,0.745505471,0.663425704,17686,-2380,15864,434,240,-9,751,-825,735,2
925999624,25720,-235,591,-0.782951994,-0.612314899,0.035491562,0.736883549,0.673466219,25778,694,21248,619,120,-71,751,-825,717,2
926019624,27970,3518,4381,-0.786418276,-0.60842363,0.025185111,0.725164548,0.686593693,30166,7862,28700,835,-193,-81,749,-839,704,2
926039624,26849,7179,9196,-0.800420405,-0.590216497,0.014443298,0.712835955,0.699731376,27458,14832,-27792,860,-905,-64,743,-827,699,2
926059628,21890,13908,5711,-0.821063371,-0.561464984,-0.004253134,0.693615207,0.719008651,16856,27678,29848,1355,-1402,5,745,-843,679,2
926079628,21223,5061,-656,-0.849501524,-0.516933398,-0.028711706,0.653251231,0.755498551,14560,9180,15704,2409,-2070,-342,717,-839,644,2
926099628,23183,-2621,-14955,-0.872692283,-0.474723028,-0.054318229,0.590639193,0.804274505,17700,-7024,-14248,3327,-1782,-689,739,-825,579,2
926119628,26775,-2771,-19978,-0.890452214,-0.439954378,-0.063067629,0.535204314,0.841744088,24328,-7608,-25480,2591,-1392,-916,733,-823,499,2
926139628,27516,-103,-17590,-0.912851451,-0.393243568,-0.051413674,0.512247218,0.856733931,25088,-1890,-22254,823,-2002,-869,727,-797,468,2
926159628,25040,-5105,-13524,-0.940235056,-0.325423032,-0.031947198,0.503354048,0.862948386,19220,-11258,-16324,136,-2915,-867,721,-791,405,2
926179628,22424,-4774,-13262,-0.961866809,-0.25725751,-0.008029698,0.510593718,0.85922664,13280,-9812,-18036,-587,-2874,-800,723,-791,400,2
926199628,19266,-381,-13480,-0.97688316,-0.193755174,0.01141011,0.520531369,0.8531879,6482,-386,-20570,-625,-2611,-632,697,-757,359,2
926219628,15608,3907,-11959,-0.98466154,-0.150949033,0.023013623,0.528744806,0.847913735,-1136,8780,-19404,-511,-2298,-621,695,-779,332,2
926239628,11813,3295,-11795,-0.988540046,-0.120634684,0.037281212,0.531219352,0.845857559,-8850,8028,-20198,-255,-1925,-789,689,-759,314,2
926259628,8885,1012,-12151,-0.989990888,-0.10124574,0.054532309,0.532481473,0.844123684,-14750,3912,-21686,-202,-1635,-776,695,-755,329,2
926279628,7458,-1328,-12083,-0.9901122,-0.088464417,0.073141665,0.537362751,0.839607982,-17608,-308,-22026,-378,-1414,-632,703,-745,316,2
926299628,5112,-2548,-12026,-0.989010146,-0.082579801,0.091406376,0.548745444,0.830358636,-22274,-2248,-22166,-714,-1174,-477,687,-735,306,2
926319628,3863,-1437,-12246,-0.989438357,-0.057809809,0.10226005,0.568048043,0.815866938,-24718,474,-22580,-1001,-858,-340,685,-737,300,2
926339628,3735,935,-12898,-0.988896433,-0.066443989,0.103935736,0.587285813,0.801903298,-24980,5370,-24520,-1073,-621,-103,689,-741,324,2
926359628,3246,3069,-13845,-0.988201043,-0.080765428,0.099207762,0.604619123,0.789453994,-25938,9612,-25934,-971,-382,2,677,-767,345,2
926379628,2771,5891,-12170,-0.987828596,-0.097701767,0.08561258,0.622233147,0.777190423,-26870,15014,-21960,-949,-199,126,671,-753,320,2
926399628,4727,6077,-6651,-0.989383947,-0.084120663,0.082070857,0.643003475,0.760399668,-22976,14842,-10542,-1053,-425,274,681,-787,335,2
926419628,7964,1256,1403,-0.992072299,-0.053219922,0.076642188,0.663073614,0.743466251,-16594,5022,4560,-1033,-1136,327,681,-781,342,2
926439628,14509,470,6685,-0.993659578,0.003814606,0.077605382,0.683485016,0.724574802,-3554,3582,13674,-1078,-1689,-94,665,-819,344,2
926459628,27994,2344,7981,-0.991539109,0.042680888,0.092698047,0.704594806,0.70211654,23472,7724,14580,-1225,-1436,-610,645,-815,337,2
926479628,21569,1903,22288,-0.990298532,0.05784836,0.098266689,0.72412432,0.681082647,10678,7024,-22854,-1138,-470,-251,649,-827,339,2
926499628,21848,76,29279,-0.98953311,0.071373863,0.097497344,0.737341493,0.666789081,11266,3342,-9316,-776,-434,11,643,-833,364,2
926519628,22557,146,19424,-0.989076931,0.078861488,0.096041757,0.747951612,0.65498743,12698,3436,-29272,-634,-200,42,641,-859,375,2
926539628,21215,5927,13217,-0.988610264,0.086202567,0.095147123,0.746364232,0.656954937,10036,14966,23604,117,-272,74,635,-845,363,2
926559628,21545,8126,19207,-0.983711582,0.120949959,0.108742428,0.732222337,0.670716329,10840,19810,-31078,868,-1476,-439,637,-861,367,2
926579628,12796,11364,-3882,-0.988635255,0.069840347,0.106795746,0.699021624,0.705687013,-6738,26924,-10284,2000,1580,-572,649,-833,352,2
926599628,19948,-776,-176,-0.986075703,0.069956176,0.128477633,0.658440234,0.740452489,7572,2738,-2696,2234,-325,-810,657,-815,353,2
926619628,16914,-9037,-5883,-0.98590092,0.029402887,0.145023247,0.642250936,0.751684777,1482,-13654,-13040,777,1207,-208,657,-769,345,2
926639628,9018,4268,-15709,-0.985635638,-0.022050917,0.147632377,0.630055891,0.761511026,-14236,13642,-31498,506,1068,-426,679,-769,363,2
926659628,13622,-3974,-16184,-0.983323224,-0.048463577,0.154270267,0.614568301,0.772756403,-4998,-2910,-30764,773,1022,-273,697,-771,400,2
926679628,16338,-5826,-15233,-0.981356241,-0.074524501,0.155960551,0.608179215,0.777488105,514,-6562,-28022,333,1064,-59,713,-767,429,2
926699628,18242,-6327,-11408,-0.979140259,-0.104368187,0.151987129,0.617199987,0.771098793,4388,-7690,-19390,-416,1340,232,715,-761,431,2
926719628,17101,-1903,-8505,-0.974878566,-0.145799534,0.145765958,0.632393686,0.759907898,2210,994,-12524,-767,1490,338,715,-775,480,2
926739628,17222,2152,-6564,-0.969950309,-0.184660468,0.131805345,0.649697827,0.747631978,2640,8850,-7232,-818,1566,447,717,-789,497,2
926759628,16577,2951,-5853,-0.962958205,-0.226283746,0.115270047,0.660981379,0.740352809,1588,9944,-4380,-459,1713,473,733,-797,553,2
926779628,15171,1528,-5109,-0.953056367,-0.270580025,0.100029581,0.664996823,0.738959296,-898,6520,-1386,-49,1855,443,721,-799,566,2
926799628,15362,-2501,-4665,-0.940301294,-0.31412241,0.091102641,0.666668409,0.738585977,-106,-2082,1016,94,1935,468,703,-809,605,2
926819628,14403,-3499,-3854,-0.924902523,-0.358135739,0.08465292,0.670558231,0.735815015,-1496,-4370,4158,-5,2090,507,723,-805,637,2
926839628,14101,-2951,-3087,-0.90759002,-0.400791908,0.078512791,0.676185723,0.73130022,-1492,-3452,7170,-82,2180,507,727,-817,674,2
926859628,14176,-2228,-2160,-0.888657454,-0.442178616,0.071834976,0.682153177,0.726423977,-662,-2186,10470,-79,2287,494,717,-837,726,2
926879628,14797,-2000,-662,-0.867461022,-0.483192313,0.063510178,0.687118957,0.722472621,1352,-1994,14940,23,2484,519,717,-839,767,2
926899628,17012,-2593,927,-0.843658967,-0.524448583,0.055505327,0.693673057,0.716841053,6646,-3470,19568,-17,2695,582,701,-863,821,2
926919628,17396,-2663,554,-0.820453469,-0.560200581,0.052573011,0.703785922,0.707103958,8206,-3712,19990,-286,2522,538,701,-867,851,2
926939628,17554,-2193,-1297,-0.799159495,-0.589591527,0.055174951,0.711944321,0.698618855,9210,-2654,17190,-352,2196,282,667,-861,867,2
926959628,18561,2049,-5153,-0.786431877,-0.606272498,0.056819868,0.720619099,0.68949854,11578,6114,9862,-527,1384,118,659,-859,909,2
926979628,17520,1116,-2532,-0.782538863,-0.610848997,0.060689648,0.728316097,0.680980589,9700,4334,15340,-507,922,62,663,-855,948,2
926999628,15867,-620,-1035,-0.778545137,-0.615846755,0.062648457,0.730060462,0.678947648,6572,822,18550,-94,1003,0,645,-849,982,2
927019628,14423,1857,-1629,-0.772898797,-0.623496795,0.054544563,0.725849722,0.684140338,3854,5672,17584,327,1067,-72,643,-867,996,2
927039628,14869,2386,-1350,-0.770415504,-0.627339909,0.043839556,0.720254567,0.69081532,4842,6402,18278,436,886,-64,625,-865,1027,2
927059628,15296,1063,-2666,-0.769493731,-0.629143396,0.031531692,0.7113641,0.700667059,5684,3254,15662,689,703,-32,611,-881,1031,2
927079628,18178,-3576,-5735,-0.766967105,-0.632730637,0.022228811,0.699122975,0.713313203,11448,-6586,9550,943,650,9,615,-877,1020,2
927099628,19901,-4506,-6679,-0.760553125,-0.640561843,0.010666766,0.686667655,0.725612126,14872,-8662,7642,859,442,-66,585,-891,1047,2
927119628,20043,-2214,-4140,-0.757783914,-0.644047955,0.002838278,0.676377287,0.735351484,15252,-4334,12822,659,214,-102,587,-893,1042,2
927139628,24299,-85,-1670,-0.757122925,-0.644786911,-0.006147885,0.667866394,0.743103098,23784,-370,17790,605,83,4,603,-907,1056,2
927159628,27251,1585,3854,-0.76236243,-0.6384516,-0.01650722,0.659643725,0.750289842,29516,2632,28630,623,-289,64,609,-897,1056,2
927179628,27315,10730,9712,-0.77209715,-0.626292149,-0.02711086,0.652442386,0.756275203,29322,20572,-25586,581,-584,119,599,-899,1068,2
927199628,22334,17035,7119,-0.790078927,-0.602113023,-0.049694362,0.635647733,0.769372752,18762,32444,-31544,1261,-1151,212,629,-935,1047,2
927219628,21670,5165,371,-0.815932335,-0.562946351,-0.083058776,0.590405909,0.802005302,16560,7608,19264,2645,-1718,-209,629,-945,1060,2
927239628,23701,-5946,-13233,-0.840948487,-0.519332919,-0.114118795,0.524353901,0.843232384,19782,-15630,-9340,3350,-1696,-654,651,-997,954,2
927259628,26963,-6359,-21530,-0.861929134,-0.480415463,-0.127702641,0.463897055,0.876207067,25634,-16898,-27242,2705,-1422,-918,671,-981,923,2
927279628,25836,-2288,-19814,-0.886999765,-0.436614433,-0.114313154,0.445138307,0.887745446,22584,-8316,-25292,552,-1918,-868,705,-1011,870,2
927299628,23521,-7887,-15362,-0.915604658,-0.379127758,-0.092640081,0.445617564,0.890011145,17000,-18808,-18248,-330,-2574,-781,715,-981,845,2
927319628,21118,-5556,-12603,-0.941666208,-0.315612324,-0.068975482,0.456087168,0.886830611,11332,-13374,-14806,-733,-2793,-716,755,-969,815,2
927339628,20358,336,-12407,-0.96051655,-0.258098427,-0.047813918,0.474230222,0.878635567,9202,-896,-16314,-1009,-2471,-558,799,-965,789,2
927359628,16601,1495,-13073,-0.974395126,-0.203992963,-0.027575337,0.488580476,0.87158267,1238,2086,-19424,-811,-2255,-617,807,-945,754,2
927379628,13548,2456,-11711,-0.981475141,-0.171509692,-0.011531845,0.498853382,0.866137644,-5164,4658,-18280,-586,-1945,-674,843,-905,772,2
927399628,10048,690,-11872,-0.984823808,-0.151731282,0.009499648,0.505197547,0.862466328,-12286,1742,-19384,-432,-1562,-828,853,-899,743,2
927419628,7374,-1923,-12027,-0.985859688,-0.141187409,0.03384412,0.514368143,0.856387345,-17678,-2846,-20144,-573,-1292,-748,875,-865,711,2
927439628,4830,-2728,-11969,-0.984981908,-0.138820263,0.057524309,0.528315907,0.84652346,-22750,-3744,-20186,-828,-1028,-612,879,-857,709,2
927459628,3583,-1503,-11461,-0.98678785,-0.115536654,0.073558293,0.549194194,0.83177742,-25190,-596,-19120,-1103,-833,-479,915,-825,704,2
927479628,4677,-846,-11825,-0.987880798,-0.096730614,0.085414702,0.574172135,0.813498847,-23032,1106,-20470,-1288,-623,-311,921,-803,711,2
927499628,5567,341,-13057,-0.986047801,-0.110706188,0.091947928,0.598836374,0.794774614,-21262,3758,-23322,-1360,-318,-186,949,-791,700,2
927519628,4735,3413,-13067,-0.983642794,-0.13032911,0.090596651,0.624117687,0.77514153,-22852,10058,-22682,-1406,-51,-86,949,-775,735,2
927539628,4043,5978,-11152,-0.982239403,-0.145715956,0.079000838,0.653696598,0.751513777,-24186,15006,-18268,-1608,-117,139,959,-769,746,2
927559628,7231,8761,-4846,-0.98467526,-0.130357074,0.076114956,0.681327276,0.726748999,-17818,20016,-5410,-1461,-475,361,975,-755,765,2
927579628,11774,2880,3195,-0.988925343,-0.096609626,0.072577196,0.700761585,0.708305938,-8876,8138,9570,-1050,-1262,300,979,-767,738,2
927599628,18234,2511,7003,-0.993324285,-0.033908548,0.072070849,0.708680207,0.700404821,3926,7570,15522,-418,-2010,-151,1015,-773,726,2
927619628,25890,5616,12525,-0.991646171,0.003542356,0.099570544,0.717709154,0.687675996,19264,14492,24950,-633,-1431,-1075,1029,-741,655,2
927639628,19529,-1978,26165,-0.98991327,0.02069523,0.114206928,0.730633512,0.671532055,6610,-220,-13880,-818,-570,-573,1027,-737,662,2
927659628,22354,-301,30892,-0.988661841,0.036461329,0.121355583,0.738385778,0.661684915,12306,3366,-4946,-486,-545,-273,1071,-721,646,2
927679628,22824,2652,20214,-0.988114506,0.051116591,0.121196274,0.743078399,0.656430051,13268,9266,-26784,-271,-525,26,1061,-711,629,2
927699628,17673,8192,9573,-0.987755543,0.051096898,0.124077389,0.731779823,0.668537389,2976,20442,17470,691,-42,-53,1057,-713,613,2
927719628,-7354,10676,4663,-0.986583043,0.083694205,0.115643967,0.7235585,0.678917652,18546,25816,6958,634,-913,-441,1073,-673,596,2
927739628,18711,-6749,-15495,-0.986626331,0.020704007,0.139843801,0.664877746,0.732581697,5012,-8920,-31594,3293,2200,-791,1075,-661,599,2
927759628,20394,-8494,3672,-0.983910128,0.039621769,0.154920006,0.640191391,0.751433907,8532,-11930,6054,1288,-928,-549,1095,-637,581,2
927779628,23435,-15890,391,-0.984094542,0.02272515,0.15697736,0.654037625,0.738939246,14616,-26656,38,-739,854,-75,1095,-639,569,2
927799628,14284,4106,-14361,-0.983144717,-0.003125483,0.164022351,0.670798745,0.722146384,-3660,13566,-28610,-945,1263,-262,1093,-599,616,2
927819628,11494,6513,-16260,-0.980689023,-0.030767418,0.174931885,0.669402275,0.720910333,-9158,18730,-31508,12,1181,-414,1095,-597,657,2
927839628,15136,1759,-11310,-0.978856374,-0.073777098,0.173364034,0.658084789,0.731785594,-1798,9396,-20732,536,1052,-212,1097,-569,653,2
927859628,18442,-4658,-11287,-0.976315007,-0.105869878,0.168348815,0.653813532,0.736655338,4870,-3822,-19086,286,1337,208,1093,-573,659,2
927879628,17560,-3582,-10241,-0.972781077,-0.141499639,0.161306703,0.661681954,0.731112771,3226,-1896,-15832,-335,1581,364,1107,-577,693,2
927899628,16266,-532,-8332,-0.967137191,-0.186608035,0.149139826,0.674311314,0.722088706,794,3918,-10810,-588,1664,493,1099,-571,757,2
927919628,17178,-203,-7278,-0.95892177,-0.231873693,0.136291604,0.685642753,0.713805508,2892,4170,-7096,-487,1820,521,1111,-581,764,2
927939628,15594,-20,-5812,-0.948063768,-0.278246231,0.123551954,0.694284461,0.707688138,94,4120,-2554,-313,1965,500,1091,-599,842,2
927959632,15361,-699,-3980,-0.935629342,-0.321337659,0.111311466,0.701452306,0.702566331,72,2312,2668,-187,2015,530,1083,-617,856,2
927979632,15368,-991,-3153,-0.922153797,-0.361265333,0.0996314,0.708948858,0.696737042,564,1314,5710,-174,2009,562,1079,-625,929,2
927999632,14571,-870,-3235,-0.906889183,-0.400330657,0.08841761,0.715664562,0.691328462,-514,1184,6852,-121,2026,546,1063,-611,953,2
928019632,14404,-2421,-2692,-0.88969388,-0.438689986,0.08007781,0.71879985,0.689096551,-254,-2304,9256,89,2095,486,1059,-629,1025,2
928039632,15000,-4295,-2750,-0.868303522,-0.480291039,0.074504254,0.719877496,0.688598661,1658,-6350,10548,223,2326,460,1011,-675,1063,2
928059632,15318,-3135,-2582,-0.842137538,-0.525067598,0.06964816,0.722152989,0.686689971,3200,-4120,12412,124,2622,389,1005,-663,1083,2
928079632,15388,-686,-1738,-0.817102369,-0.563738415,0.064394251,0.727516446,0.681513308,4244,750,15424,-94,2516,342,963,-663,1165,2
928099632,15704,1918,-1183,-0.794655273,-0.595566446,0.056238595,0.732518846,0.67682844,5674,5844,17602,-103,2297,274,943,-665,1209,2
928119632,17896,3167,-1945,-0.777476406,-0.61816542,0.051153189,0.73638206,0.673013538,10638,8224,16788,-169,1853,102,915,-665,1245,2
928139632,17831,628,-4502,-0.767797474,-0.630153039,0.048689608,0.736273807,0.673292225,10768,2928,11978,43,1191,11,885,-663,1279,2
928159632,17054,-2705,-1489,-0.763355188,-0.635418728,0.051004661,0.733910998,0.675727522,9448,-3854,18276,177,1008,-45,891,-649,1313,2
928179632,15758,-1317,1061,-0.761046363,-0.638145568,0.050490146,0.729092455,0.680976313,7014,-1026,23560,317,1018,-123,877,-655,1322,2
928199632,15214,883,1336,-0.760866517,-0.639084788,0.041400169,0.718848187,0.692453336,5948,3208,24152,688,913,-201,861,-647,1317,2
928219632,16295,-1567,-1385,-0.760511737,-0.639953474,0.032640672,0.704993982,0.707071921,8030,-2132,18644,937,752,-182,869,-659,1356,2
928239632,18401,-4790,-6791,-0.758184545,-0.64295093,0.02483349,0.688180596,0.723820388,12160,-8976,7754,1126,581,-163,855,-667,1344,2
928259632,20473,-3027,-5406,-0.751950093,-0.650622357,0.014695357,0.675948821,0.735600393,16300,-5570,10508,807,426,-110,869,-685,1342,2
928279632,24110,-2317,-1952,-0.747581715,-0.655652309,0.004600729,0.665719835,0.745028844,23716,-4482,17584,709,307,-35,861,-675,1315,2
928299632,29342,-998,4316,-0.747509304,-0.655828524,-0.003399528,0.658472475,0.751488816,-31352,-2106,30122,524,46,13,875,-669,1321,2
928319632,30458,3753,8993,-0.757658137,-0.644006932,-0.012500623,0.651978683,0.757056262,-29456,7098,-26442,519,-590,80,891,-675,1301,2
928339632,25532,14199,6260,-0.778996995,-0.6177324,-0.024788269,0.63597304,0.770304065,25524,27586,-32754,981,-1319,-121,907,-645,1251,2
928359632,21354,11617,-832,-0.803567564,-0.584474923,-0.045602246,0.604703212,0.794280138,16352,21738,17528,1800,-1586,-269,929,-655,1186,2
928379632,22245,3430,-12688,-0.827988999,-0.546401398,-0.074438869,0.543100264,0.835710313,17300,4418,-7370,3159,-1616,-733,933,-661,1159,2
928399632,25652,-4984,-22588,-0.850282166,-0.508254088,-0.092201192,0.480143106,0.871846972,23388,-12990,-28434,2892,-1509,-938,945,-629,1052,2
928419632,25028,-5270,-21720,-0.878429892,-0.459136683,-0.087508988,0.451098638,0.887754988,21238,-13404,-28348,1093,-2147,-798,959,-631,1009,2
928439632,23348,-7558,-15975,-0.909837574,-0.397684403,-0.068289308,0.446965881,0.891536258,16842,-17354,-18866,-128,-2756,-769,975,-567,932,2
928459632,20644,-1744,-12192,-0.936717201,-0.334377054,-0.042721488,0.459952664,0.886487436,10548,-4888,-13368,-893,-2791,-725,975,-521,867,2
928479632,21017,1633,-12238,-0.95800136,-0.270706095,-0.018510054,0.477511067,0.87796001,10592,2660,-15548,-1042,-2713,-663,965,-483,816,2
928499632,16830,2471,-11600,-0.973555967,-0.209790353,0.002793804,0.489083037,0.871736135,1718,5036,-16284,-715,-2519,-679,935,-425,763,2
928519632,14631,3033,-11080,-0.981323641,-0.171629705,0.015831506,0.491828438,0.870083382,-2984,6758,-16954,-256,-2093,-673,935,-395,707,2
928539632,10714,2402,-11177,-0.985448051,-0.145244006,0.029183156,0.488877285,0.871417146,-10960,5930,-18162,8,-1779,-732,913,-361,669,2
928559632,7639,-1061,-11688,-0.986897755,-0.1292879,0.049674982,0.487092562,0.871490411,-17170,-536,-19852,-67,-1520,-744,885,-341,638,2
928579632,4793,-2962,-11299,-0.989283528,-0.097168872,0.067172548,0.492670629,0.867108701,-22854,-3720,-19396,-357,-1240,-644,871,-301,609,2
928599632,4050,-3084,-11420,-0.990351727,-0.071680058,0.082640496,0.504802143,0.858722847,-24364,-3460,-20484,-637,-953,-545,841,-271,598,2
928619632,3926,-1960,-12125,-0.990667265,-0.052271817,0.094114416,0.524031846,0.845891191,-24620,-840,-22534,-951,-669,-373,823,-265,561,2
928639632,4199,-16,-13502,-0.98946486,-0.065209793,0.099409946,0.546921648,0.830624193,-24078,3254,-25760,-1221,-430,-165,831,-249,516,2
928659632,3553,2624,-13500,-0.988451667,-0.081568338,0.096250724,0.572196096,0.813718364,-25340,8604,-25210,-1337,-262,-11,815,-247,524,2
928679632,3692,4401,-11634,-0.989225002,-0.070312131,0.09667896,0.599576054,0.79360426,-25046,11968,-20954,-1363,-283,123,803,-251,528,2
928699632,6397,4600,-5147,-0.99067099,-0.054216687,0.092144906,0.627965856,0.771777894,-19684,12216,-8508,-1426,-478,311,805,-257,513,2
928719632,11080,1030,2814,-0.992277548,-0.02333534,0.089180733,0.65029572,0.753337977,-10370,4980,6404,-1154,-1113,199,799,-275,486,2
928739632,19119,1025,6736,-0.991839528,0.028426047,0.094415033,0.663699806,0.740854558,5726,5280,12858,-694,-1627,-351,777,-283,445,2
928759632,30319,-651,9076,-0.988530347,0.056432571,0.115278994,0.685396606,0.717696603,28228,2470,16314,-1237,-971,-869,789,-285,422,2
928779632,19197,3942,27820,-0.987561289,0.073425418,0.114897035,0.71219964,0.691060854,6022,11642,-12296,-1517,-480,-49,765,-293,382,2
928799632,22372,4257,28434,-0.98685631,0.088052524,0.110962271,0.736952525,0.665130936,12394,12144,-11548,-1451,-391,75,753,-285,370,2
928819632,24248,3307,17959,-0.986154377,0.102294398,0.104964919,0.747574717,0.654079787,16176,10048,32568,-629,-473,215,737,-305,381,2
928839632,20924,7618,15376,-0.984136557,0.115377879,0.11072137,0.740283882,0.661431646,9596,18858,26970,456,-546,-156,745,-313,347,2
928859632,1903,14717,-1998,-0.986017071,0.112764282,0.09545165,0.734543905,0.670180691,-28388,-32028,-7826,477,-72,-484,709,-293,366,2
928879632,21845,2823,-3268,-0.985282425,0.084096042,0.126884681,0.685983218,0.715196809,11356,9800,-9252,2813,902,-982,699,-261,368,2
928899632,14167,-2389,-7598,-0.985629786,0.051820096,0.142120951,0.650765659,0.744905842,-3948,-160,-17388,1842,483,-422,707,-245,371,2
928919632,9570,-1749,-17595,-0.984757422,-0.011753399,0.155533661,0.625010965,0.764158886,-13150,1570,29904,1172,1427,-465,705,-223,418,2
928939632,13887,-3195,-18607,-0.982783373,-0.035529869,0.16178696,0.605660703,0.77829597,-4450,-1108,29502,971,878,-253,699,-225,420,2
928959632,16163,-5041,-17079,-0.980858721,-0.064031946,0.164006854,0.598617502,0.78328874,176,-4730,-32058,358,1158,-80,697,-219,419,2
928979632,18923,-7172,-12946,-0.978966067,-0.093351888,0.160234959,0.606236309,0.77814436,5756,-9112,-22826,-345,1312,213,713,-211,449,2
928999632,17725,-1835,-9770,-0.975091361,-0.136148656,0.153870293,0.621565547,0.767266326,3452,1406,-15418,-780,1496,319,723,-241,478,2
929019632,17434,3152,-6533,-0.971081955,-0.174290884,0.137198308,0.641037365,0.75412723,3032,11080,-7506,-912,1556,497,725,-257,489,2
929039632,16858,3076,-5794,-0.964890782,-0.215845088,0.119381821,0.656074274,0.744078979,2088,10334,-4608,-641,1727,548,735,-267,517,2
929059632,15516,1720,-5621,-0.954982806,-0.262571849,0.102744697,0.662052456,0.741225949,-280,7006,-2696,-143,1931,509,745,-267,554,2
929079632,14914,-3855,-5086,-0.940558229,-0.311884988,0.095633899,0.661861453,0.742335241,-1032,-4720,76,184,2127,464,743,-271,560,2
929099632,14537,-5861,-4318,-0.923144463,-0.360753039,0.092563664,0.663683701,0.741111076,-1194,-8960,3298,97,2262,488,747,-287,602,2
929119632,14639,-5238,-3364,-0.903423667,-0.407792011,0.089763382,0.669106517,0.736534832,-298,-7776,6852,-71,2378,517,739,-297,639,2
929139632,14868,-2628,-2482,-0.882751059,-0.451419385,0.084686846,0.67672389,0.730112812,912,-2574,10134,-181,2411,482,749,-323,695,2
929159632,15087,-1075,-361,-0.859208852,-0.496200744,0.074565624,0.681405151,0.726851111,2228,290,15996,55,2706,486,747,-329,730,2
929179632,16395,-701,1158,-0.834055334,-0.538711766,0.062342094,0.68719992,0.722512653,5754,648,20526,66,2812,575,753,-313,749,2
929199632,16590,-1933,-701,-0.808813026,-0.576417001,0.054485688,0.690169331,0.720291536,6960,-2148,17976,152,2564,429,741,-349,800,2
929219632,16848,1997,-5445,-0.785051847,-0.608863959,0.047670888,0.691735072,0.719279861,8166,5710,9352,24,2096,132,723,-351,840,2
929239632,16668,2271,-4082,-0.777472431,-0.618479284,0.046396036,0.696576817,0.714642121,8116,6232,12426,-279,1062,59,719,-361,858,2
929259632,17463,-1897,-150,-0.772983866,-0.62356222,0.052738813,0.700851666,0.709988292,9978,-2134,20614,-264,1088,36,733,-353,902,2
929279632,17307,-1829,713,-0.76871844,-0.628890852,0.051811978,0.696513515,0.71433725,9838,-2028,22544,317,1118,-63,711,-347,894,2
929299632,14866,577,-558,-0.766270533,-0.632347846,0.045751194,0.689585581,0.721473908,5008,2726,20068,450,938,-133,709,-357,917,2
929319632,14373,620,-2650,-0.763556544,-0.635904495,0.040507184,0.68302205,0.728023103,4036,2644,15912,398,808,-137,693,-361,935,2
929339632,14892,2425,-4774,-0.756908594,-0.644526953,0.02402231,0.669587055,0.74116772,5220,5812,11866,900,922,-129,687,-385,942,2
929359632,17356,-501,-4871,-0.750526493,-0.652340943,0.006874979,0.652278608,0.756868547,10388,-796,11970,1206,964,-54,685,-397,937,2
929379632,20002,-4353,-6018,-0.740499135,-0.663555453,-0.010321126,0.634908143,0.771518096,15730,-9042,9720,1168,656,-59,683,-387,957,2
929399632,21014,-5240,-5113,-0.735767417,-0.668409575,-0.024540153,0.618703326,0.784312932,17912,-11284,11682,1025,330,-106,673,-431,948,2
929419632,26535,-4994,-1611,-0.734511185,-0.669446612,-0.034956228,0.604585651,0.794914804,28996,-11132,18716,828,126,-142,669,-433,948,2
929439632,29798,-728,7852,-0.742462309,-0.660164271,-0.041121685,0.594017943,0.802568136,-30278,-2802,-28194,573,-434,-140,685,-463,938,2
929459632,26663,12372,8879,-0.759418117,-0.640116636,-0.050525801,0.584170839,0.809269046,28432,23090,-26792,631,-1004,0,681,-461,925,2
929479632,22923,13115,7040,-0.78275748,-0.609456213,-0.070356361,0.564114045,0.821964977,20176,23928,-31454,1268,-1467,47,703,-487,918,2
929499632,21161,3869,-6749,-0.806577347,-0.573490754,-0.099935054,0.519445084,0.848056965,15856,4466,5358,2417,-1535,-268,707,-505,864,2
929519632,23943,-2803,-13475,-0.832280545,-0.531056689,-0.123209801,0.462625809,0.877529915,20568,-9638,-9470,2697,-1692,-647,717,-527,838,2
929539632,26227,-4043,-21073,-0.858161816,-0.487260256,-0.12738473,0.427290587,0.894749146,24304,-12254,-26134,1468,-1840,-653,725,-523,786,2
929559632,26354,-4062,-17905,-0.889512621,-0.430989087,-0.116135872,0.419392895,0.900006978,23526,-11924,-21642,137,-2548,-554,733,-491,761,2
929579632,23491,-5918,-13504,-0.919036219,-0.369379783,-0.098666127,0.423911285,0.899956457,16822,-15068,-14848,-426,-2769,-549,755,-497,719,2
929599632,22121,-3575,-12446,-0.942983329,-0.309654424,-0.077780648,0.438604653,0.894917598,13300,-9700,-14694,-867,-2640,-550,781,-493,686,2
929619632,19863,1723,-13027,-0.961940324,-0.25107302,-0.056592209,0.455513269,0.888005298,8166,1590,-17780,-941,-2516,-584,789,-483,625,2
929639632,17155,2811,-12677,-0.975874932,-0.195984179,-0.035915304,0.467591165,0.882772934,2300,4446,-18900,-698,-2295,-667,819,-469,597,2
929659632,14043,1951,-12249,-0.982704941,-0.164279301,-0.015740199,0.473298276,0.880349888,-4214,3474,-19602,-381,-1922,-841,813,-451,553,2
929679632,10356,1178,-12403,-0.985983385,-0.144797523,0.005081566,0.475966284,0.879037572,-11704,2596,-20686,-247,-1563,-878,823,-415,493,2
929699632,7005,-810,-12278,-0.987309789,-0.132662836,0.027112089,0.482154699,0.875233425,-18456,-772,-20956,-411,-1398,-765,825,-405,479,2
929719632,5178,-1397,-11771,-0.990092251,-0.101280823,0.045291562,0.494456761,0.867508596,-22112,-1308,-20200,-666,-1205,-631,823,-391,449,2
929739632,3657,-991,-11104,-0.991651779,-0.075415257,0.060215141,0.512807889,0.855818605,-25194,-8,-19726,-922,-963,-493,815,-387,422,2
929759632,3844,278,-11744,-0.992492149,-0.054257387,0.069604061,0.534803737,0.841468118,-24848,2838,-21704,-1076,-752,-280,837,-387,402,2
929779632,4130,1371,-13001,-0.991997052,-0.064238222,0.070006453,0.557218172,0.826733321,-24290,5154,-24788,-1160,-583,-75,833,-383,379,2
929799632,3518,3534,-13967,-0.990999205,-0.082940239,0.063079859,0.577878805,0.812933838,-25494,9380,-26096,-1067,-219,76,831,-407,382,2
929819632,3361,6286,-12464,-0.989508804,-0.105193831,0.047808156,0.596149724,0.800602518,-25768,14574,-22280,-928,13,193,837,-415,341,2
929839632,6579,5327,-5304,-0.990790576,-0.095318744,0.042743006,0.613942232,0.787278578,-19316,12056,-7484,-860,-324,328,845,-409,345,2
929859632,12376,-1587,2584,-0.993449062,-0.063217938,0.042564011,0.629882999,0.774531446,-7816,-1778,7250,-811,-1230,106,837,-437,333,2
929879632,19821,687,6713,-0.994522452,-0.014201196,0.061547654,0.651470065,0.755067794,7022,3390,13916,-1197,-1891,-691,825,-445,313,2
929899636,32602,-2580,14585,-0.992935557,0.026202036,0.082769611,0.693765111,0.714093542,32624,-2444,28348,-2375,-1434,-839,833,-449,279,2
929919636,19483,6025,32764,-0.992743291,0.044695934,0.077706015,0.729997169,0.677424906,6410,14594,-1452,-2084,-544,169,795,-463,273,2
929939636,22230,10022,28178,-0.992690576,0.056668278,0.070399144,0.756385153,0.648495596,11916,22352,-11028,-1588,-327,250,809,-487,280,2
929959636,21510,7575,16293,-0.992905516,0.06275071,0.06178446,0.757857896,0.647639692,10482,17174,30528,-71,-199,377,799,-513,232,2
929979636,24853,12525,21770,-0.989194864,0.101986166,0.070479407,0.739944736,0.667270711,17270,27360,-25324,1118,-1634,-237,801,-503,253,2
929999636,8873,17487,-10655,-0.989903582,0.074282495,0.091354456,0.695557727,0.711285856,-14730,-27568,-23712,2619,960,-597,793,-473,209,2
930019636,23454,-560,-6886,-0.985261438,0.079915117,0.129389608,0.626526671,0.767622095,14544,3120,-16322,3739,-606,-1241,807,-433,234,2
930039636,15144,-18355,-6037,-0.985328915,0.053349148,0.141731307,0.590512635,0.793701684,-2020,-32078,-13808,1851,879,-354,799,-379,216,2
930059636,9070,2059,-18764,-0.984578466,0.022108881,0.154020296,0.578811176,0.800060481,-14136,9148,27292,569,1244,-452,815,-359,238,2
930079636,14406,-3886,-20026,-0.983827461,-0.005634792,0.159532869,0.568063397,0.806695854,-3436,-2564,25672,526,1100,-193,825,-341,241,2
930099636,17234,-3577,-16702,-0.983258864,-0.03491714,0.158607475,0.567336095,0.807387164,2240,-1976,-32256,54,1238,66,849,-345,273,2
930119636,18701,-5638,-12745,-0.982421163,-0.069840208,0.151289728,0.579021785,0.800415859,5194,-6336,-23192,-518,1561,358,863,-341,283,2
930139636,17920,-418,-8696,-0.979627106,-0.117170349,0.139840351,0.598966856,0.7876847,3702,3842,-13858,-960,1730,454,867,-361,299,2
930159636,17519,4219,-6486,-0.975729257,-0.160942825,0.119811501,0.620456606,0.774103818,3050,12682,-7858,-975,1761,583,887,-373,322,2
930179636,16033,1711,-6759,-0.967482619,-0.213087009,0.102757258,0.631892852,0.767232014,324,6980,-6686,-447,2043,578,905,-409,366,2
930199636,14714,-892,-5335,-0.955349308,-0.265514011,0.091392777,0.634631138,0.766386582,-1920,1244,-2012,2,2160,466,911,-399,393,2
930219636,14824,-4302,-4239,-0.940474352,-0.314748589,0.086751078,0.63711171,0.764842307,-1198,-5942,1912,29,2204,460,919,-427,458,2
930239636,14394,-4095,-3549,-0.923860766,-0.360954557,0.082907042,0.644923918,0.758656602,-1478,-5658,4884,-220,2234,527,943,-437,516,2
930259636,14271,-3091,-2742,-0.905870758,-0.404663421,0.078877307,0.654117785,0.751165388,-1084,-3730,8014,-280,2276,512,961,-421,518,2
930279636,14506,-2540,-1861,-0.885310899,-0.448442079,0.073793598,0.661540056,0.745133763,118,-2762,11310,-163,2447,486,975,-487,605,2
930299636,15568,-1975,172,-0.860749498,-0.494910736,0.065494139,0.668332294,0.739815664,3146,-1872,17052,-54,2824,551,989,-475,604,2
930319636,17238,-995,1033,-0.836389372,-0.535709435,0.056819956,0.678777229,0.73091837,7354,-140,20168,-230,2734,615,973,-507,684,2
930339636,16607,-1185,-1426,-0.810408901,-0.574190238,0.055782482,0.685583722,0.724597124,6922,-564,16420,-227,2571,284,963,-483,745,2
930359636,18990,4179,-5318,-0.793732276,-0.597176017,0.051702742,0.692173237,0.718568143,12178,10302,9226,-346,1651,116,965,-503,815,2
930379636,17651,1713,-1788,-0.791287687,-0.60024742,0.05439691,0.698843526,0.711864514,9688,5350,16500,-437,860,20,965,-511,843,2
930399636,17188,-1807,61,-0.786766019,-0.60567301,0.05838405,0.699248087,0.711134657,8960,-1758,20454,-34,1081,-47,951,-507,862,2
930419636,15259,1405,-1013,-0.781609453,-0.61316585,0.049099445,0.689601954,0.721242262,5254,4548,18504,623,1068,-175,941,-503,866,2
930439636,14610,484,-1619,-0.777510935,-0.618834766,0.04239814,0.681094384,0.729742166,4070,2424,17456,535,956,-147,947,-499,865,2
930459636,15221,220,-2427,-0.774769954,-0.622627527,0.035000466,0.671944231,0.738593102,5360,1630,15936,587,821,-118,971,-501,900,2
930479636,16566,-1415,-3637,-0.770459536,-0.628439024,0.023302,0.656953931,0.752469085,8158,-2130,13676,1016,863,-77,945,-515,910,2
930499636,19926,-5038,-5190,-0.760525478,-0.640700998,0.010323244,0.642629942,0.765078854,14922,-9736,10624,946,669,-61,965,-525,933,2
930519636,21379,-3194,-3227,-0.754965687,-0.647296393,-0.000615953,0.629149413,0.776319778,18012,-6408,14762,844,386,-96,957,-539,960,2
930539636,24114,-2368,-1488,-0.751096366,-0.65158603,-0.012559806,0.614197122,0.788147327,23610,-5146,18380,917,279,-111,955,-551,940,2
930559636,30783,-3311,4057,-0.755264236,-0.646500353,-0.022674933,0.597030761,0.801061263,-28726,-7364,29304,942,-211,-233,967,-553,930,2
930579636,25855,12271,8279,-0.767614823,-0.631648012,-0.02701746,0.58894014,0.80691456,26550,23658,-28276,439,-733,-98,969,-553,917,2
930599636,22659,19258,9182,-0.785736803,-0.608240554,-0.042096049,0.567217749,0.821757898,19556,-28400,-27222,1232,-1126,-159,957,-585,895,2
930619636,20558,3880,-3948,-0.806289416,-0.57757278,-0.075690575,0.517609559,0.851684622,14656,5280,11098,2717,-1322,-291,981,-593,855,2
930639636,24353,-4423,-16609,-0.82928911,-0.540057512,-0.101066838,0.45163013,0.88604635,21474,-12156,-15426,3088,-1483,-833,983,-583,811,2
930659636,26326,-5028,-23978,-0.854809308,-0.498359475,-0.103672667,0.41051854,0.905605059,24608,-13448,-31578,1641,-1764,-856,995,-607,723,2
930679636,26223,-3338,-18892,-0.886531737,-0.443078775,-0.089781418,0.40147532,0.91114269,23364,-9616,-23218,120,-2520,-673,997,-595,711,2
930699636,24259,-6254,-14512,-0.917267753,-0.379833037,-0.071585213,0.405697012,0.910877606,18418,-14856,-16520,-439,-2840,-575,1011,-567,642,2
930719636,21862,-2239,-12910,-0.942426313,-0.316640535,-0.051548531,0.420519929,0.905465564,12796,-6168,-15386,-871,-2766,-506,999,-569,581,2
930739636,20218,1371,-12931,-0.962066939,-0.254542666,-0.033157983,0.44059146,0.896703554,8866,1654,-17472,-1052,-2647,-426,997,-563,524,2
930759636,16632,3481,-12142,-0.976231612,-0.196596056,-0.016539054,0.455025813,0.889908714,1238,6420,-17804,-770,-2403,-478,987,-561,485,2
930779636,13906,3324,-11994,-0.983263174,-0.161345551,-0.00516509,0.46126068,0.886857849,-4504,6648,-19180,-373,-2051,-583,997,-555,423,2
930799636,10026,1661,-11718,-0.98706547,-0.136958608,0.009726536,0.461833745,0.886527713,-12394,3752,-19568,-128,-1758,-698,985,-537,361,2
930819636,7006,-919,-12164,-0.988692842,-0.121307172,0.030601356,0.462444998,0.885726778,-18492,-880,-21104,-148,-1551,-747,971,-531,344,2
930839636,4843,-2296,-11894,-0.991311243,-0.087087471,0.0491297,0.469075201,0.881339427,-22822,-2980,-20912,-391,-1328,-685,965,-517,329,2
930859636,3832,-2140,-11479,-0.992659794,-0.056816177,0.065714017,0.481416088,0.873543642,-24876,-2126,-21088,-626,-1157,-599,969,-493,310,2
930879636,4037,-923,-11832,-0.992969859,-0.032145593,0.077676661,0.500661235,0.861617189,-24476,700,-22604,-927,-896,-414,955,-483,255,2
930899636,4198,1052,-12939,-0.992492894,-0.041412199,0.081659468,0.522900004,0.847914986,-24150,4878,-25420,-1142,-614,-225,939,-483,264,2
930919636,3274,3560,-14361,-0.991775427,-0.057799214,0.077834458,0.544649821,0.834395302,-25986,9912,-27718,-1124,-307,-72,957,-487,254,2
930939636,2864,5910,-12382,-0.991102869,-0.078531433,0.064549255,0.565377468,0.821562743,-26788,14354,-23016,-1046,-64,111,951,-507,250,2
930959636,5780,5618,-5324,-0.992036462,-0.070510454,0.060703579,0.592345409,0.802568696,-20956,13224,-8334,-1306,-206,291,953,-515,249,2
930979636,11878,-1770,3196,-0.993722897,-0.040254647,0.06166733,0.608282048,0.790420912,-8820,-1518,7720,-801,-1138,38,947,-541,240,2
930999636,17646,1467,6948,-0.993554089,0.02367156,0.075568879,0.619175671,0.780667162,2712,5558,13484,-556,-2100,-707,925,-521,203,2
931019636,32104,-1514,14254,-0.991392843,0.056140941,0.087744587,0.658899629,0.745971782,31692,-152,26692,-2108,-1109,-542,935,-541,165,2
931039636,21772,5192,32764,-0.990180569,0.081024682,0.082150313,0.692610601,0.715277931,11074,13076,-2646,-1848,-813,134,907,-555,150,2
931059636,24865,4102,26696,-0.98966128,0.087375155,0.082544731,0.715789992,0.691935396,17292,10908,-15004,-1315,-111,-95,901,-577,166,2
931079636,18300,3930,13161,-0.989581466,0.087859569,0.082786025,0.717833981,0.68976628,4170,10570,23442,-107,32,11,887,-587,142,2
931099636,22259,9073,13389,-0.986755988,0.110818921,0.089286417,0.69780338,0.709317727,12170,21072,23156,1170,-999,-123,899,-587,155,2
931119636,-2783,14863,-19490,-0.988051616,0.078383297,0.106688392,0.673272427,0.730431912,27574,-32318,23998,1388,1232,-554,879,-547,102,2
931139636,25721,2562,5206,-0.983499831,0.086122256,0.138828755,0.63212637,0.761352371,19184,9664,7614,2198,-551,-1104,879,-525,137,2
931159636,20760,-11615,-2862,-0.982983842,0.071555488,0.150115202,0.609694853,0.777435862,9300,-18326,-8064,1166,472,-342,875,-459,123,2
931179636,7710,7294,-23928,-0.982392326,0.028016221,0.166807914,0.59477851,0.785637086,-16792,20032,16776,729,1719,-614,869,-461,126,2
931199636,10728,2797,-19737,-0.980928376,-0.001112759,0.176723584,0.566098109,0.804539621,-10706,11358,26110,1409,1001,-359,901,-433,123,2
931219636,16667,-10086,-15679,-0.980122976,-0.031511474,0.177953427,0.547801329,0.816903329,1206,-14368,-30318,911,1133,-38,917,-415,167,2
931239636,18808,-6521,-13925,-0.979778949,-0.063609794,0.170543225,0.556303836,0.812685018,5500,-7478,-25760,-351,1429,349,907,-399,180,2
931259636,17552,-2379,-9921,-0.977151833,-0.110950857,0.161961131,0.571496917,0.803851349,3040,558,-16578,-737,1637,408,929,-413,204,2
931279636,17577,2002,-8303,-0.972886853,-0.157960895,0.145167501,0.587877693,0.795063762,3240,8982,-11674,-727,1779,525,949,-439,237,2
931299636,16354,3006,-6750,-0.965950307,-0.20760628,0.125686877,0.598827075,0.790113738,1032,10402,-6846,-401,1955,557,977,-451,293,2
931319636,15367,-466,-6128,-0.954955235,-0.258850206,0.112464418,0.60307315,0.788852599,-600,2830,-3862,-59,2067,496,981,-455,322,2
931339636,14930,-2580,-4480,-0.941746999,-0.306312883,0.102165463,0.607153159,0.787093176,-1022,-1876,1134,-8,2107,552,997,-493,379,2
931359636,14687,-4222,-3636,-0.926326001,-0.351793949,0.095846419,0.612929335,0.783400713,-978,-5480,4396,-72,2168,566,1017,-497,402,2
931379636,14291,-3591,-2684,-0.909121921,-0.394930948,0.090774139,0.61976674,0.778584717,-1160,-4358,7810,-128,2233,516,1031,-507,450,2
931399636,14436,-2270,-1926,-0.889887009,-0.437437953,0.084497524,0.625207148,0.774910172,-180,-1846,10802,-48,2353,443,1045,-531,534,2
931419636,15713,-2674,312,-0.867050987,-0.481921587,0.077349727,0.626864167,0.774304068,3216,-2912,16902,190,2695,405,1035,-535,520,2
931439636,16722,-2150,1995,-0.845000647,-0.520517953,0.070669458,0.632719569,0.770169549,6050,-2056,21614,-1,2630,460,1033,-537,620,2
931459636,17376,-1592,1421,-0.825596895,-0.550833598,0.068378774,0.637288164,0.766579792,8020,-980,21436,-62,2283,248,1061,-551,694,2
931479636,19586,2919,-1826,-0.814234363,-0.567777419,0.063259301,0.638574548,0.76592122,12768,8108,15358,-24,1476,10,1043,-553,714,2
931499636,17563,1566,-1320,-0.811325228,-0.572032426,0.062771865,0.640379122,0.764455315,8838,5328,16510,-118,882,-65,1049,-545,749,2
931519636,16618,-1499,-1852,-0.803706614,-0.582547652,0.063514239,0.636658039,0.767509662,7178,-950,15784,210,1159,-98,1035,-543,759,2
931539636,14511,-149,-2960,-0.792558897,-0.598540301,0.054898869,0.624301855,0.778310878,3304,1542,14042,751,1322,-150,1043,-537,799,2
931559636,14298,-171,-2645,-0.784905983,-0.608925257,0.048194767,0.614404717,0.786607875,3150,1268,15032,592,1103,-122,1027,-537,836,2
931579636,13994,134,-3186,-0.781464953,-0.613770174,0.042787646,0.607076824,0.792618548,2642,1716,14070,434,788,-98,1039,-539,843,2
931599636,14744,-1162,-4277,-0.776678251,-0.620264713,0.032964707,0.59380419,0.803105783,4266,-1288,12076,848,814,-56,1009,-527,845,2
931619636,18082,-5306,-4677,-0.773953557,-0.624023914,0.027899219,0.579570793,0.81368245,11040,-9942,11408,903,696,-38,1027,-553,845,2
931639636,19800,-4042,-5655,-0.768315662,-0.631193686,0.017939669,0.565883091,0.823570697,14418,-7496,9378,801,395,-90,993,-513,851,2
931659636,21255,-1751,-3323,-0.766318873,-0.633846166,0.010169134,0.5543027,0.831578277,17394,-3166,14124,655,167,-93,1003,-527,859,2
931679636,26435,-601,2270,-0.767412392,-0.63250591,0.003567774,0.545134116,0.837688617,27718,-1084,25268,529,-30,-49,995,-525,843,2
931699636,27423,4409,8349,-0.774066912,-0.624489414,-0.000554038,0.539377218,0.84143598,29478,8800,-28376,335,-385,-18,973,-539,835,2
931719636,26987,10491,9241,-0.788499698,-0.605907802,-0.015335218,0.522953048,0.851632025,28124,20480,-27182,1002,-907,13,981,-531,837,2
931739636,21397,7125,2269,-0.809085108,-0.577030653,-0.042386881,0.49099974,0.869623825,16258,12860,23486,1865,-1356,21,969,-547,794,2
931759636,21126,2925,-8394,-0.830447869,-0.543227816,-0.06935462,0.445352482,0.892260458,15004,3578,1072,2340,-1469,-240,941,-533,749,2
931779636,25185,-3601,-14838,-0.854136955,-0.502872499,-0.086233179,0.389890831,0.91651704,22338,-10026,-13130,2463,-1672,-694,931,-531,694,2
931799636,26440,-5546,-21007,-0.879292712,-0.457496779,-0.087825071,0.351897463,0.931672199,24036,-13968,-26976,1499,-1927,-724,917,-519,660,2
931819640,25191,-5288,-18722,-0.908093389,-0.400030293,-0.077540804,0.340678265,0.936758136,20592,-13114,-24290,281,-2540,-566,883,-535,602,2
931839640,23364,-5845,-15591,-0.933615703,-0.340027351,-0.060544011,0.345531452,0.936223622,16094,-13674,-19988,-423,-2626,-538,867,-511,592,2
931859640,22864,-3482,-12848,-0.95397047,-0.28258381,-0.038016901,0.36226093,0.931052014,14430,-8210,-16392,-947,-2474,-613,831,-517,549,2
931879640,20100,2536,-13645,-0.970166439,-0.224094886,-0.016667119,0.385674799,0.922198933,8368,4526,-19902,-1193,-2453,-546,815,-499,511,2
931899640,16156,2691,-12015,-0.979562122,-0.181930805,-0.002547494,0.404477846,0.914252564,114,5426,-18462,-939,-2256,-522,793,-519,495,2
931919640,13105,2888,-11198,-0.984926485,-0.150879377,0.010206066,0.416186787,0.908914929,-6158,6280,-17932,-625,-1864,-602,787,-517,474,2
931939640,9358,1090,-11584,-0.987329138,-0.133084241,0.025961754,0.423176346,0.905361976,-13734,3120,-19456,-424,-1507,-665,751,-503,489,2
931959640,6751,-940,-10967,-0.990460696,-0.099323938,0.042321265,0.432763923,0.900144067,-18978,-490,-18658,-508,-1308,-577,765,-485,467,2
931979640,4097,-2114,-10624,-0.992219601,-0.070060141,0.057137796,0.447687518,0.891949825,-24336,-2354,-18938,-730,-1112,-510,753,-489,463,2
931999640,3655,-1445,-10982,-0.993006611,-0.047084484,0.068356779,0.466481606,0.881436681,-25238,-650,-20418,-885,-843,-371,747,-485,473,2
932019640,3950,193,-11686,-0.993293125,-0.029778019,0.074285926,0.488406081,0.868944025,-24656,2818,-22392,-1018,-590,-168,755,-485,457,2
932039640,4768,1980,-12746,-0.993137192,-0.043925034,0.071320418,0.507875558,0.857949106,-23026,6460,-24934,-973,-407,-28,737,-481,464,2
932059640,5045,3870,-12558,-0.992630931,-0.061334865,0.063413312,0.525025841,0.848141424,-22470,10106,-23940,-860,-224,31,753,-509,469,2
932079640,5828,4864,-8660,-0.992955696,-0.053501669,0.062963763,0.543115018,0.836628741,-20892,11794,-15560,-857,-217,99,755,-501,452,2
932099640,8655,3333,-27,-0.994014245,-0.03061852,0.063553746,0.564574409,0.82220473,-15270,8748,954,-1033,-828,53,731,-511,487,2
932119640,12204,-569,2945,-0.993933193,0.005593685,0.07330387,0.579842925,0.810643075,-8178,1264,5716,-769,-1379,-353,727,-501,475,2
932139640,21533,3413,2393,-0.992463645,0.030360393,0.087283726,0.592063367,0.800327659,10536,9686,3796,-626,-919,-548,731,-505,489,2
932159640,26181,2798,17996,-0.990703555,0.050785091,0.097717017,0.617841659,0.779270854,19882,8794,-31198,-1320,-668,-443,757,-511,451,2
932179640,24005,7605,32764,-0.987214068,0.092754332,0.103168911,0.645607945,0.755588703,15634,18588,-3030,-1449,-1527,-293,747,-479,454,2
932199640,21709,-485,25200,-0.985484775,0.107595658,0.105821868,0.663884822,0.73913548,11118,2492,-18660,-967,-465,-173,759,-495,462,2
932219640,20285,8071,11949,-0.986137377,0.099496668,0.107795141,0.653307699,0.748278424,8254,19668,20636,590,312,9,757,-487,454,2
932239640,18627,8532,7802,-0.984119209,0.099708494,0.12459222,0.60595726,0.784798544,4972,21142,12366,2498,-258,-413,787,-497,472,2
932259640,-4098,3639,-19445,-0.985998567,0.027076712,0.143590434,0.552207846,0.820593171,25040,12108,24886,2536,1537,-723,785,-467,470,2
932279640,29268,-3920,-192,-0.983169802,0.040038809,0.159648142,0.515509048,0.841370439,26298,-2626,-1682,1744,-758,-569,809,-433,488,2
932299640,20999,-16085,-735,-0.982547957,0.035755968,0.164466735,0.516237166,0.840007102,9800,-26806,-2644,-32,228,-166,811,-421,464,2
932319640,10071,7917,-20692,-0.981320959,-0.001587559,0.174548299,0.524213802,0.83300614,-12034,21530,24218,-408,1653,-386,831,-413,499,2
932339640,11413,6461,-16533,-0.978800662,-0.028974714,0.1857372,0.508166932,0.840581626,-9256,18976,-32114,722,1041,-438,857,-395,540,2
932359640,16973,-3524,-14593,-0.976748236,-0.060207859,0.188536007,0.48738911,0.852244221,1928,-904,-27206,975,1149,-132,853,-405,548,2
932379640,19137,-8560,-13073,-0.975022586,-0.093931589,0.182809967,0.488828668,0.852638787,6314,-11160,-23062,-9,1444,265,879,-401,558,2
932399640,17774,-1662,-9422,-0.971375274,-0.13876039,0.173712601,0.504384847,0.84541763,3676,2420,-14618,-708,1613,390,895,-399,574,2
932419640,17453,2438,-7430,-0.967115082,-0.180428321,0.156247911,0.521732308,0.838149315,3196,10248,-9136,-715,1644,526,897,-411,646,2
932439640,16739,2005,-6921,-0.959498841,-0.2277156,0.139153192,0.533297131,0.833808085,2014,8796,-6516,-411,1895,526,913,-429,667,2
932459640,14945,-245,-5864,-0.948038802,-0.2768309,0.126519352,0.536086353,0.834004184,-1208,3754,-2718,10,2014,424,903,-423,703,2
932479640,14704,-3269,-5192,-0.933512673,-0.325307125,0.117828331,0.537130963,0.834601087,-1214,-2768,304,137,2113,474,909,-431,779,2
932499640,14139,-3900,-4420,-0.916341517,-0.37281524,0.110740184,0.539596623,0.833978405,-1756,-4320,3488,102,2215,498,917,-441,792,2
932519640,14033,-4740,-3498,-0.896433629,-0.418977324,0.106555471,0.542076973,0.83289635,-1278,-6198,6946,110,2334,458,921,-453,837,2
932539640,14106,-3883,-3009,-0.87404572,-0.464853751,0.101099098,0.544247,0.832159635,-346,-4620,9496,158,2461,435,889,-461,899,2
932559640,14952,-3038,-851,-0.851368707,-0.506047385,0.094709334,0.545722239,0.831932759,2198,-3086,15316,212,2521,380,879,-459,948,2
932579640,16196,-2440,2147,-0.831576096,-0.538295442,0.091850211,0.55336187,0.8271759,5464,-1950,22506,-120,2404,368,875,-481,984,2
932599640,18120,-1035,1794,-0.81317848,-0.565502603,0.091259488,0.563578516,0.820275735,9944,930,22680,-334,2224,283,849,-471,1025,2
932619640,19023,1506,-1189,-0.800220575,-0.584035344,0.089719885,0.570365198,0.815739876,12144,6100,17192,-275,1650,87,833,-465,1082,2
932639640,17986,-122,-3587,-0.79794246,-0.586856548,0.09125779,0.575471848,0.811956432,10076,2818,12390,-246,731,33,827,-475,1097,2
932659640,16797,-1335,-1947,-0.793732792,-0.592113882,0.093586876,0.576625675,0.81086617,7878,396,15906,-49,935,-44,835,-471,1125,2
932679640,16124,-214,-2393,-0.786514286,-0.602069588,0.090956948,0.572505277,0.814095004,6768,2616,15324,242,1115,-113,845,-475,1143,2
932699640,15051,699,-1925,-0.780245356,-0.610942001,0.084318285,0.564090487,0.820669636,4850,4278,16570,472,1073,-175,813,-461,1175,2
932719640,14278,1601,-716,-0.780122276,-0.612084515,0.076592525,0.555450698,0.827315686,3354,5882,19064,463,747,-201,833,-479,1199,2
932739640,13261,-972,-2195,-0.779261693,-0.614065344,0.069264743,0.541371211,0.837275272,1280,312,16112,788,666,-190,815,-485,1200,2
932759640,16544,-5971,-4906,-0.775362346,-0.61931687,0.066057343,0.522189748,0.849675542,7880,-10044,10778,1046,685,-212,831,-497,1233,2
932779640,19771,-7175,-6704,-0.769564515,-0.627172846,0.058083459,0.504773756,0.860748222,14318,-12446,7148,868,386,-247,809,-485,1230,2
932799640,21362,-3100,-3081,-0.767551867,-0.63007893,0.054001439,0.490236601,0.869412115,17568,-4430,14482,650,144,-279,841,-499,1263,2
932819640,26755,-2069,4143,-0.768463226,-0.629342744,0.050127316,0.478099504,0.876404475,28324,-2496,28906,553,-36,-210,833,-501,1259,2
932839640,28120,5180,10824,-0.775245691,-0.621224452,0.047876017,0.468181966,0.881889816,30832,11930,-23530,428,-413,-190,873,-495,1259,2
932859640,27359,12059,8244,-0.789462177,-0.60377248,0.037444462,0.447124755,0.893285474,28836,25346,-29248,1039,-913,-237,911,-507,1264,2
932879640,23620,12617,3846,-0.811291447,-0.575160148,0.014506346,0.41472197,0.909491878,20630,25710,26580,1750,-1457,-99,923,-533,1234,2
932899640,18487,8338,-11298,-0.835821193,-0.539338315,-0.013851581,0.359998297,0.932607813,9542,16222,-4850,2658,-1725,-377,991,-547,1176,2
932919640,24754,-2093,-19221,-0.858966926,-0.500983257,-0.033392072,0.29245167,0.955541169,21304,-5282,-21936,2899,-1711,-817,1011,-581,1151,2
932939640,27064,-4789,-20635,-0.884804709,-0.453918891,-0.035181306,0.244673871,0.968858451,25094,-10732,-26338,1813,-2070,-880,1067,-595,1082,2
932959640,25805,-3918,-17336,-0.913590452,-0.394290347,-0.023425048,0.228889214,0.973077988,21636,-8604,-21700,407,-2631,-688,1087,-591,1012,2
932979640,24361,-4029,-13292,-0.939564278,-0.329044672,-0.007266397,0.226880925,0.973805379,17892,-8294,-15748,-147,-2812,-612,1121,-549,923,2
932999640,22949,-2171,-13659,-0.958773814,-0.268491531,0.012144603,0.237358134,0.971246911,14440,-3942,-18474,-642,-2539,-591,1137,-519,849,2
933019640,18121,3576,-13303,-0.973216066,-0.209320957,0.030271357,0.249476591,0.967796024,4314,8146,-19708,-661,-2425,-562,1135,-509,814,2
933039640,14599,4837,-11339,-0.980736267,-0.171615794,0.038031906,0.255519401,0.965946754,-3022,11198,-17474,-381,-2067,-565,1147,-487,710,2
933059640,11088,3898,-11546,-0.984426558,-0.147254469,0.047558,0.25402385,0.965921877,-10166,9620,-18824,-73,-1677,-679,1151,-471,682,2
933079640,9544,2079,-12210,-0.986128604,-0.131776217,0.057429777,0.252482282,0.965789756,-13314,6206,-20760,-58,-1424,-574,1131,-433,644,2
933099640,5927,197,-11211,-0.988964546,-0.098641727,0.068788966,0.254629325,0.964467239,-20578,2650,-19168,-141,-1290,-420,1141,-405,606,2
933119640,4020,-311,-10513,-0.990678445,-0.070890203,0.078908147,0.258369474,0.96269243,-24432,1962,-18698,-188,-1078,-366,1135,-391,580,2
933139640,3598,544,-10966,-0.991437331,-0.050982669,0.085902451,0.263528278,0.960690638,-25296,3902,-20262,-227,-754,-240,1117,-387,540,2
933159640,3698,1685,-12441,-0.991808878,-0.038834663,0.088415632,0.270959198,0.958385792,-25108,6266,-23612,-308,-425,-57,1125,-363,533,2
933179640,4474,4515,-13526,-0.991644528,-0.060177214,0.07788715,0.276281781,0.957777014,-23562,11896,-25940,-282,-130,78,1115,-377,532,2
933199640,5219,5175,-8696,-0.992292147,-0.053426305,0.073465857,0.289352629,0.954242369,-22084,12756,-15640,-525,-189,240,1121,-353,516,2
933219640,8534,1517,-365,-0.993692914,-0.027776677,0.07032263,0.309783956,0.948024033,-15502,5338,184,-845,-944,195,1131,-369,501,2
933239640,12435,-2917,5262,-0.992617201,0.028884463,0.085384607,0.31784068,0.944099745,-7698,-3170,9948,-314,-1800,-414,1127,-365,472,2
933259640,18648,-1953,5407,-0.989257094,0.068792984,0.101911562,0.322180055,0.940984301,4856,-572,8776,-135,-1314,-648,1129,-357,434,2
933279640,23631,-1019,11823,-0.987345945,0.075408023,0.115026751,0.327851394,0.93750493,14906,1724,21172,-213,-204,-519,1101,-339,393,2
933299640,18545,4052,27511,-0.985629391,0.091512291,0.118772859,0.320513103,0.93958695,4790,11988,-13516,334,-660,-98,1119,-323,400,2
933319640,20639,-4012,20614,-0.984505055,0.096370658,0.124348319,0.321607022,0.938494619,9016,-3960,-27468,-20,-153,-201,1123,-311,349,2
933339640,23081,-1385,14800,-0.982955799,0.109365791,0.126221893,0.321452275,0.938299507,13950,1354,26014,26,-493,-44,1097,-291,361,2
933359640,25335,6839,19295,-0.977812046,0.145394471,0.130483511,0.313605843,0.940380882,18612,17944,-31702,362,-1491,-103,1101,-301,364,2
933379640,-1615,16163,-15652,-0.98032085,0.115307031,0.140832133,0.295243282,0.944857787,30172,-28610,30460,828,1172,-287,1103,-295,321,2
933399640,30198,5322,2470,-0.97790774,0.103408447,0.164921176,0.236431919,0.957528105,28316,16032,1580,2546,138,-680,1097,-259,362,2
933419640,17572,-18262,-8222,-0.977181405,0.085293978,0.178776792,0.2000328,0.963387698,3108,-30694,-19230,1556,521,-391,1109,-203,347,2
933439640,7995,5363,-21449,-0.97745258,0.036975404,0.192791277,0.189661745,0.9628432,-16062,17010,21442,457,1956,-516,1093,-203,378,2
933459640,14424,335,-15987,-0.976310542,0.014591901,0.200939335,0.173742833,0.964225901,-3152,7214,-32448,668,839,-287,1115,-183,427,2
933479640,16706,-3578,-15656,-0.976500254,-0.013903443,0.199492146,0.165755121,0.965928903,1404,-658,-30854,346,1154,86,1117,-169,446,2
933499640,19002,-2791,-11999,-0.976824835,-0.045190878,0.192822746,0.170483485,0.966429971,5986,700,-22514,-160,1368,305,1127,-183,448,2
933519640,17413,-3502,-8874,-0.975200258,-0.091157662,0.184811024,0.176988088,0.966797305,2828,-988,-15112,-297,1551,387,1127,-175,466,2
933539640,16876,-1953,-7604,-0.971836668,-0.137382437,0.172179708,0.188602304,0.96688283,1860,1770,-10958,-454,1707,527,1161,-201,529,2
933559640,15602,-453,-6757,-0.965474427,-0.187676528,0.15813953,0.199882358,0.966968855,-476,4382,-7550,-402,1953,520,1151,-207,578,2
933579640,14620,-686,-4757,-0.956487264,-0.235837104,0.145620888,0.206511639,0.967509499,-2130,3486,-1830,-168,2013,463,1147,-209,596,2
933599640,14872,-2562,-3244,-0.945392134,-0.280537503,0.137203427,0.209830744,0.968010141,-1238,-666,2800,3,2041,424,1161,-239,658,2
933619640,14807,-2588,-2355,-0.932458244,-0.324387107,0.128299852,0.209737934,0.969243016,-910,-1024,6108,185,2123,410,1167,-253,700,2
933639640,14791,-3792,-1457,-0.916934669,-0.368172653,0.121052321,0.204748303,0.971238725,-402,-3756,9438,416,2247,368,1167,-257,767,2
933659640,14628,-5163,-1018,-0.897788897,-0.413227059,0.117070749,0.195653543,0.97360041,-78,-6718,11858,584,2410,260,1179,-253,811,2
933679640,16452,-3618,601,-0.878298663,-0.454255171,0.111760302,0.189237021,0.975492522,4308,-3696,16556,476,2458,203,1165,-265,877,2
933699640,16247,-1073,1212,-0.861672951,-0.486428188,0.104971118,0.189098217,0.976270884,4514,1310,18868,209,2196,209,1149,-291,955,2
933719640,16000,-366,-1017,-0.84830258,-0.510173772,0.100025726,0.186945593,0.977203434,4432,2604,15088,207,1707,58,1145,-285,1000,2
933739644,16473,-2017,-4254,-0.839748448,-0.524015794,0.099991936,0.183712523,0.97782167,5578,-786,8920,173,1060,-34,1115,-281,1034,2
933759644,16662,-3336,-5508,-0.83265893,-0.534618901,0.103473962,0.181667428,0.977845125,6160,-3374,6712,93,854,-59,1129,-279,1035,2
933779644,16461,-1366,-3938,-0.826716408,-0.543626908,0.103139616,0.178579643,0.978449728,6014,658,10222,152,885,-70,1133,-275,1081,2
933799644,15738,864,-2210,-0.821546316,-0.552744733,0.095986976,0.169605613,0.980775489,4806,5008,14048,436,964,-111,1113,-285,1081,2
933819644,15140,280,-1392,-0.819270946,-0.556657925,0.091964314,0.160710456,0.982660493,3708,3668,15852,386,785,-175,1101,-291,1131,2
933839644,15091,-2021,626,-0.821164198,-0.553726727,0.093620063,0.15153604,0.983966982,3598,-1036,19878,380,582,-220,1095,-279,1143,2
933859644,14391,-3114,-179,-0.823308308,-0.550538281,0.093922666,0.133695561,0.986529609,2086,-3288,18128,755,468,-292,1103,-295,1144,2
933879644,16529,-5027,-2329,-0.823369604,-0.550631497,0.092331528,0.11032504,0.989574542,6286,-7236,13744,1025,467,-272,1087,-275,1169,2
933899644,20725,-5741,-5835,-0.819495611,-0.557420649,0.085090168,0.085018091,0.992723553,14590,-8696,6604,1034,269,-308,1087,-297,1155,2
933919644,22503,-1682,-3068,-0.819810404,-0.557944039,0.079192332,0.063995335,0.994792275,18138,-770,12148,856,-21,-256,1089,-297,1149,2
933939644,27764,381,4639,-0.823260555,-0.553456608,0.074336481,0.045891488,0.996168938,28544,3198,27420,733,-245,-222,1089,-289,1127,2
933959644,28584,2579,9633,-0.833948217,-0.537603114,0.071456355,0.02800337,0.997044867,29832,7500,-28646,684,-789,-278,1107,-305,1103,2
933979644,27510,15261,10093,-0.847114082,-0.518077696,0.06071704,0.008011479,0.998118734,27250,32514,-28362,933,-971,-39,1109,-309,1117,2
933999644,23597,14688,6606,-0.870638845,-0.479710029,0.042721926,-0.036126042,0.998428863,18630,30780,28984,1930,-1881,-245,1121,-313,1056,2
934019644,19122,12044,-15391,-0.886891594,-0.450563285,0.023838172,-0.108461922,0.993793603,9128,24872,-15936,2974,-1415,-682,1121,-331,995,2
934039644,27757,1909,-20607,-0.905677546,-0.412491592,0.010164464,-0.205420833,0.978547266,25746,4154,-27564,3848,-1751,-1216,1107,-341,943,2
934059644,27341,1493,-21429,-0.927036423,-0.362302992,0.013229302,-0.273989517,0.961507034,24240,3422,-30898,2608,-2207,-1215,1111,-349,858,2
934079644,27229,-4308,-18266,-0.949894598,-0.297106136,0.027175674,-0.310688788,0.949946743,23280,-7724,-26728,1299,-2797,-1028,1113,-317,784,2
934099644,23374,-2481,-14392,-0.967808392,-0.229830237,0.047236864,-0.321920313,0.945393741,14988,-3410,-21200,270,-2807,-891,1103,-317,755,2
934119644,19200,4751,-15141,-0.978887074,-0.171566743,0.066023041,-0.32461798,0.943336582,6290,11668,-24624,-13,-2376,-747,1091,-273,684,2
934139644,14376,3992,-11110,-0.984760318,-0.131553622,0.076560196,-0.332901701,0.939653277,-3578,10764,-18366,211,-2233,-773,1091,-291,638,2
934159644,11536,3352,-9978,-0.987432832,-0.102511579,0.088267148,-0.351516489,0.931799881,-9336,9872,-17120,674,-1893,-869,1077,-259,599,2
934179644,8998,2241,-11467,-0.987701401,-0.08677526,0.101853926,-0.374517903,0.921369655,-14424,8028,-20770,872,-1561,-863,1081,-245,579,2
934199644,6725,-227,-11895,-0.986548856,-0.077754147,0.119006652,-0.391587868,0.912155025,-18944,3484,-22030,620,-1393,-773,1053,-219,527,2
934219644,4175,-942,-10586,-0.985943861,-0.047604609,0.136756292,-0.397611804,0.907023739,-23982,2588,-19592,281,-1215,-713,1055,-211,494,2
934239644,3075,-251,-9904,-0.984937802,-0.023174062,0.150152698,-0.398710502,0.904433941,-26134,4402,-19044,78,-969,-519,1059,-183,483,2
934259644,2916,519,-10651,-0.98419142,-0.006741488,0.157378485,-0.39473176,0.90497781,-26422,6174,-21082,-147,-611,-261,1047,-183,453,2
934279644,3003,1190,-12739,-0.984234048,-0.025373997,0.155317916,-0.391483355,0.906752642,-26240,7570,-25576,-318,-303,-35,1041,-175,468,2
934299644,2666,2061,-13176,-0.984067198,-0.052521653,0.148387072,-0.384894006,0.910717076,-26932,9142,-25552,-464,80,105,1043,-185,429,2
934319644,5377,1461,-9706,-0.984609963,-0.05409118,0.143264175,-0.367232293,0.918802869,-21518,7604,-17636,-759,224,281,1049,-187,457,2
934339644,12046,-613,-1485,-0.986810315,-0.036918182,0.133626124,-0.341496903,0.930135515,-8252,3142,-1756,-1104,-507,476,1033,-187,448,2
934359644,19567,-5284,9925,-0.987724997,0.021282397,0.132181618,-0.330480486,0.934329145,6740,-6244,19174,-465,-2283,90,1049,-213,392,2
934379644,27339,-7095,16240,-0.981182085,0.080840226,0.157042495,-0.322763154,0.933223974,22490,-9058,29860,-215,-2371,-996,1035,-217,378,2
934399644,18940,-1911,23322,-0.978048354,0.080476549,0.176162516,-0.319688423,0.930923013,5828,1922,-21530,-11,59,-752,1009,-205,331,2
934419644,17446,10148,27240,-0.978503812,0.056504514,0.182480943,-0.336067248,0.923910629,2820,26246,-12904,752,901,-180,999,-173,319,2
934439644,19565,5472,24656,-0.97884661,0.072382301,0.175029034,-0.351282299,0.919636697,7048,16652,-18596,635,-729,370,1033,-173,376,2
934459644,24713,6132,16313,-0.977932146,0.104952706,0.16390192,-0.363512201,0.916884225,17368,17614,29194,477,-1387,521,999,-189,344,2
934479644,2686,16808,3197,-0.98043664,0.12510786,0.131674378,-0.357160594,0.924496051,-26640,-26672,2468,-320,-516,117,999,-199,290,2
934499644,29072,10648,-8462,-0.981224835,0.082553625,0.156005427,-0.4263165,0.890713096,25928,26400,-19574,3226,1330,-636,1007,-171,345,2
934519644,11275,-12737,-7238,-0.974035084,0.058049291,0.205915602,-0.510764714,0.834413065,-9532,-19288,-16720,4117,-200,-1022,1007,-121,353,2
934539644,10336,-13938,-15164,-0.973029055,0.017804002,0.216733953,-0.54291803,0.81099738,-11242,-20822,-30886,1645,1371,-354,1001,-87,414,2
934559644,10730,1872,-17101,-0.972818062,-0.024721656,0.21774064,-0.56349653,0.796583455,-10384,11018,31334,811,603,-254,999,-83,442,2
934579644,17648,-666,-16299,-0.971538303,-0.046033176,0.218369697,-0.572820904,0.789635237,3448,5770,-31082,491,834,-19,1011,-59,447,2
934599644,19271,-569,-12971,-0.970863026,-0.072488029,0.213625536,-0.580448192,0.785294663,6720,5810,-23562,380,1065,199,1015,-71,461,2
934619644,18959,-3184,-10154,-0.970165273,-0.102696257,0.203452034,-0.586546175,0.783379566,6120,256,-16936,297,1243,416,1025,-73,533,2
934639644,16944,-4401,-9260,-0.966753112,-0.146440301,0.192775728,-0.590144286,0.783362847,2146,-2564,-14042,110,1432,509,1019,-61,531,2
934659644,16041,-5482,-8834,-0.960242037,-0.192650087,0.18323669,-0.589807173,0.785848422,526,-5102,-11612,-28,1642,571,1041,-91,559,2
934679644,15505,-3693,-7247,-0.951612571,-0.238788107,0.171998041,-0.588859661,0.78903011,-244,-1818,-6822,-12,1778,556,1061,-111,620,2
934699644,15357,-2656,-4710,-0.942041285,-0.280588226,0.159336998,-0.586005881,0.7937437,-178,-110,-204,-45,1843,582,1057,-107,629,2
934719644,14716,-984,-3578,-0.931504289,-0.32055885,0.14395891,-0.582056446,0.799542828,-1070,2812,3454,-60,1894,611,1053,-131,691,2
934739644,14357,-765,-2685,-0.920419399,-0.357080478,0.127886801,-0.580352809,0.803500678,-1388,2724,6516,97,1849,599,1061,-139,716,2
934759644,14579,-2670,-1635,-0.907689318,-0.39189592,0.11458428,-0.582857601,0.803661905,-500,-1662,9862,367,1901,561,1071,-155,780,2
934779644,14561,-5127,-595,-0.890206544,-0.43171184,0.107061985,-0.590014191,0.799437594,68,-6984,13340,616,2244,407,1051,-195,816,2
934799644,16274,-5763,1574,-0.867688676,-0.476558344,0.100865733,-0.595062945,0.796492588,4320,-8474,19286,543,2719,386,1067,-167,856,2
934819644,17261,-3181,1570,-0.846864592,-0.513617763,0.094482757,-0.591396768,0.800007937,7042,-3372,20514,95,2513,434,1035,-197,947,2
934839644,18018,-2997,-577,-0.829666441,-0.541825373,0.088570669,-0.59652243,0.796859866,9106,-3182,17056,453,1995,162,1033,-205,973,2
934859644,17272,1517,-3134,-0.818143582,-0.560525248,0.078047542,-0.607024647,0.789965715,7966,5746,12438,600,1393,-86,1001,-205,1015,2
934879644,17028,4050,-1249,-0.811882118,-0.570366981,0.069689985,-0.613688111,0.785544109,7750,10666,16592,309,1107,-195,983,-205,1043,2
934899644,14900,-742,-460,-0.806167336,-0.57913796,0.064377096,-0.624927405,0.777069502,3704,630,18510,635,1113,-162,955,-199,1087,2
934919644,13195,-3314,-2706,-0.795305707,-0.594657548,0.056835478,-0.641616013,0.763888761,558,-4952,14426,1050,1271,-72,963,-209,1119,2
934939644,15519,-4831,-2686,-0.788834251,-0.603188636,0.056677023,-0.649169736,0.757464064,5442,-8046,14754,544,997,9,941,-221,1121,2
934959644,16831,-4126,-3448,-0.788797343,-0.60305568,0.057676076,-0.652119236,0.75482842,8062,-6544,13204,278,553,58,937,-221,1181,2
934979644,17492,-4021,-3853,-0.790130727,-0.601749603,0.053021878,-0.662306359,0.746212592,9330,-6474,12344,707,444,-3,943,-225,1145,2
934999644,19167,-1789,-4303,-0.793269217,-0.598215032,0.046105867,-0.673647657,0.736412611,12582,-2116,11322,722,326,-86,929,-227,1171,2
935019644,20682,64,-2138,-0.792525008,-0.5997894,0.038318108,-0.685885178,0.725437408,15390,1384,15380,737,84,-123,921,-239,1174,2
935039644,24777,303,2067,-0.79414448,-0.598178247,0.026562504,-0.70077494,0.711517712,23524,1478,23742,962,-74,-95,911,-239,1181,2
935059644,28862,905,6238,-0.799992533,-0.590873528,0.012398052,-0.716232134,0.696282964,31502,2218,31846,1064,-356,-43,897,-225,1187,2
935079644,30411,4293,14363,-0.812699867,-0.57340681,-0.000539416,-0.731787389,0.679930549,-31356,8570,-18006,1064,-839,-86,897,-253,1179,2
935099644,23375,11542,6540,-0.831968263,-0.545066118,-0.015856767,-0.749699716,0.659842102,19470,22566,30966,1267,-1340,-76,909,-241,1146,2
935119644,20736,12906,549,-0.854896644,-0.507479878,-0.038980203,-0.779714871,0.622896593,13424,24536,17780,2152,-1695,-206,913,-267,1122,2
935139644,24736,-629,-19138,-0.875612732,-0.468362816,-0.063640439,-0.820801551,0.565074867,20724,-3346,-22842,3016,-1607,-524,899,-283,1102,2
935159644,29573,-2331,-21606,-0.903701335,-0.411090676,-0.067936864,-0.860193944,0.502023747,29462,-6890,-29634,2800,-2351,-1163,921,-281,1079,2
935179644,27319,-2917,-20217,-0.930541813,-0.349025536,-0.056799273,-0.876266627,0.474774098,24104,-7696,-28942,1022,-2632,-885,911,-287,1042,2
935199644,26317,-9156,-15048,-0.954481553,-0.280742558,-0.037945458,-0.88226752,0.465326687,21308,-19556,-20838,200,-2877,-845,931,-257,969,2
935219644,21345,-3627,-13820,-0.971288797,-0.219279738,-0.016918867,-0.880364642,0.470209112,10826,-7808,-20412,-409,-2551,-745,923,-249,950,2
935239644,18041,1458,-14034,-0.983173054,-0.159778722,0.000411939,-0.874688743,0.481051756,3828,2932,-22794,-612,-2427,-568,919,-241,868,2
935259644,14713,3034,-12018,-0.989132384,-0.121329401,0.011116944,-0.870558271,0.488791432,-3062,6596,-20558,-448,-2187,-549,931,-245,835,2
935279644,11182,2683,-11114,-0.991975442,-0.093809554,0.022989907,-0.869162187,0.490846565,-10214,6300,-19736,-175,-1828,-659,929,-231,808,2
935299644,8869,398,-11229,-0.993008561,-0.077924281,0.037420542,-0.869009316,0.490272729,-14864,2072,-20606,-53,-1490,-616,925,-247,804,2
935319644,6153,-1503,-11684,-0.992712446,-0.070483699,0.054947798,-0.865367504,0.495013868,-20292,-1288,-21860,-317,-1252,-559,935,-235,748,2
935339644,3641,-2122,-10662,-0.993249422,-0.042347709,0.068445374,-0.857137594,0.507282935,-25284,-2000,-19920,-606,-1051,-487,915,-229,747,2
935359644,3436,-1165,-10869,-0.993107321,-0.021886457,0.079726124,-0.847670084,0.521415008,-25680,282,-21014,-689,-736,-406,905,-219,740,2
935379644,3381,175,-11444,-0.992762256,-0.006974854,0.086600658,-0.838863345,0.534453293,-25776,3186,-22658,-628,-509,-241,905,-251,713,2
935399644,4043,1028,-12970,-0.992740877,-0.025749899,0.084907543,-0.832251832,0.545191584,-24446,4932,-26012,-603,-277,-18,903,-241,708,2
935419644,3130,2616,-12992,-0.99229023,-0.050518395,0.077222529,-0.823903499,0.558885036,-26282,7964,-25232,-723,-10,109,903,-247,725,2
935439644,6371,2992,-8970,-0.99270371,-0.045661904,0.072874853,-0.810333829,0.578945123,-19800,8372,-16434,-954,-74,254,901,-249,721,2
935459644,11280,-1447,-424,-0.994024672,-0.019463927,0.068295786,-0.794894913,0.600658281,-10022,-656,-204,-1061,-950,253,899,-245,720,2
935479644,14750,-1008,3444,-0.993550876,0.025631836,0.075050778,-0.784328626,0.613676315,-3076,450,6258,-649,-1498,-253,893,-251,675,2
935499644,24537,2008,7333,-0.99077975,0.051690444,0.096656835,-0.765607907,0.634092366,16592,7182,12982,-1078,-925,-890,879,-253,675,2
935519644,26337,-504,21803,-0.98890925,0.069304025,0.104683547,-0.743894035,0.658313429,20256,2418,-24192,-1284,-544,-374,867,-233,661,2
935539644,19663,6044,32764,-0.987468321,0.091590358,0.101552192,-0.724881165,0.679757332,6956,15412,-3002,-1155,-747,65,889,-241,652,2
935559644,21643,4979,22265,-0.987629347,0.104195558,0.087362458,-0.700768255,0.706616662,10910,12820,-24414,-1499,-331,461,881,-247,637,2
935579644,23895,10470,10203,-0.988308981,0.103042571,0.081056478,-0.704320416,0.703826739,15402,23592,17028,171,77,303,875,-277,641,2
935599644,13182,10229,17522,-0.979705773,0.156138234,0.100563754,-0.72318241,0.681741521,-5776,23754,29956,1285,-2257,-609,885,-259,680,2
935619644,19349,3003,-3457,-0.983910516,0.107555594,0.121049371,-0.77184681,0.622277027,6460,10226,-10656,3214,1333,-701,873,-255,666,2
935639644,16937,-7341,-5360,-0.978883768,0.102399861,0.161375405,-0.808493884,0.563786974,1756,-9642,-14402,2867,-603,-1012,885,-269,683,2
935659648,13975,-4848,-13546,-0.981106857,0.043875141,0.173359446,-0.822160788,0.539936036,-4198,-4158,-29204,1008,1431,-229,873,-257,718,2
935679648,9805,1410,-18359,-0.98025943,0.022989338,0.17986358,-0.830390532,0.524649059,-12532,8686,28082,738,791,-216,859,-257,746,2
935699648,15598,-2441,-16962,-0.980041984,-0.00348519,0.181679304,-0.835350402,0.515979819,-928,1042,31732,423,1065,-42,877,-259,763,2
935719648,19104,-2366,-14198,-0.980175009,-0.030880215,0.177965643,-0.837758446,0.513355862,6082,1072,-27380,159,1148,174,895,-275,775,2
935739648,17679,-4238,-10726,-0.980002977,-0.064592488,0.168912459,-0.833592698,0.523119897,3232,-2964,-19326,-391,1507,417,887,-263,800,2
935759648,16636,-908,-8084,-0.97822408,-0.109754549,0.155344948,-0.827060759,0.537658697,1186,3348,-12890,-652,1603,525,881,-287,858,2
935779648,17351,-664,-6366,-0.974360337,-0.153051797,0.140258069,-0.818223817,0.554988598,2734,3352,-7882,-727,1717,624,877,-281,883,2
935799648,15783,1653,-5773,-0.967736222,-0.200908238,0.122655117,-0.813660126,0.565720512,-170,7528,-5080,-379,1915,560,861,-309,940,2
935819648,14910,-1488,-4533,-0.957942054,-0.248262227,0.11166322,-0.812398687,0.569853209,-1590,684,-924,-50,2024,497,837,-321,937,2
935839648,14537,-3967,-3590,-0.945252968,-0.29460128,0.104462323,-0.81087525,0.57332102,-1924,-4666,2564,15,2099,530,813,-329,1002,2
935859648,14095,-5730,-3072,-0.930103384,-0.340207852,0.100714269,-0.807720266,0.578472255,-2292,-8432,5158,-46,2184,566,831,-347,1032,2
935879648,13720,-6061,-2049,-0.912867207,-0.383921364,0.10021377,-0.801916566,0.586644873,-2434,-9146,8734,-191,2278,541,789,-355,1062,2
935899648,15045,-3692,-686,-0.893972777,-0.426571049,0.096569086,-0.795779273,0.595592611,920,-4368,12990,-209,2452,496,761,-349,1121,2
935919648,17279,-1235,982,-0.87575081,-0.464455672,0.087220876,-0.790440559,0.604134969,6080,392,17676,-128,2430,524,721,-359,1136,2
935939648,16799,1009,-14,-0.856525887,-0.500647517,0.074757661,-0.786661841,0.610700458,5770,4590,16844,-31,2358,466,683,-385,1203,2
935959648,16760,2302,260,-0.837794423,-0.532890797,0.061534637,-0.786837772,0.611952186,6350,6806,18464,182,2233,286,669,-373,1220,2
935979648,17165,2354,-1355,-0.822925059,-0.556284416,0.055269453,-0.786651002,0.61283653,7636,6700,15930,31,1770,55,645,-375,1246,2
935999648,17354,128,-3458,-0.809324011,-0.575540185,0.054762641,-0.786138289,0.613476021,8412,2106,12290,-15,1508,-10,613,-381,1280,2
936019648,16448,-3083,-2377,-0.8000613,-0.588313237,0.05690387,-0.788629754,0.610112792,6942,-4434,14898,221,1241,-28,575,-379,1310,2
936039648,14729,-3058,-557,-0.793627378,-0.596723534,0.058269422,-0.793135608,0.604065282,3776,-4360,18894,370,1145,-70,549,-383,1310,2
936059648,15004,500,-1987,-0.789638866,-0.60238097,0.054044387,-0.795991857,0.600678859,4434,2850,16156,228,924,-42,535,-387,1329,2
936079648,15962,1472,-2787,-0.787747443,-0.605667645,0.042032324,-0.802792747,0.592455022,6390,4448,14638,580,743,6,501,-405,1334,2
936099648,17804,-1321,-3644,-0.785851562,-0.608753214,0.030400108,-0.813249528,0.578651771,10118,-1692,13012,908,706,0,493,-401,1353,2
936119648,20600,-2623,-5045,-0.779055957,-0.617825584,0.017199867,-0.824875038,0.562398193,15666,-4680,10162,984,485,-55,479,-419,1366,2
936139648,22303,-1404,-2899,-0.777063807,-0.620731641,0.005610203,-0.835639508,0.546483245,19138,-2624,14546,916,175,-89,453,-433,1387,2
936159648,26006,-2263,2943,-0.778966958,-0.618137585,-0.005682831,-0.845006984,0.531717222,26480,-4710,26148,855,-85,-60,453,-457,1366,2
936179648,30164,-208,11594,-0.789258629,-0.605019249,-0.014054851,-0.852818713,0.518900722,-31074,-876,-22520,701,-630,-80,417,-477,1390,2
936199648,26326,10234,6986,-0.805051737,-0.583563544,-0.027631971,-0.863174647,0.500829868,26262,19564,-32430,1022,-1021,-39,421,-473,1396,2
936219648,22768,13127,4291,-0.823801255,-0.555129329,-0.052492196,-0.881761318,0.464925166,18516,24534,26816,1937,-1272,-91,417,-499,1396,2
936239648,21412,2318,-11070,-0.842149645,-0.52365868,-0.078668051,-0.903978854,0.415524794,15190,2058,-4920,2439,-1292,-284,421,-515,1384,2
936259648,25179,-5780,-18094,-0.866819451,-0.480060587,-0.091186508,-0.925303258,0.362308845,21916,-14544,-20396,2274,-1802,-720,425,-547,1364,2
936279648,26965,-2937,-19488,-0.895668009,-0.424821177,-0.087535934,-0.936714295,0.332257234,24542,-8740,-24998,1108,-2379,-705,443,-559,1391,2
936299648,26609,-4566,-18357,-0.924015908,-0.362185488,-0.076550185,-0.939625921,0.326685002,22900,-11640,-24794,68,-2739,-482,471,-567,1351,2
936319648,24594,-7755,-13560,-0.94936377,-0.294300007,-0.058233306,-0.939187327,0.33172795,18032,-17418,-17418,-423,-2923,-608,533,-519,1377,2
936339648,23912,-3506,-14032,-0.968005547,-0.230892705,-0.037221568,-0.93262131,0.352824356,16060,-8234,-20446,-1077,-2687,-554,545,-497,1341,2
936359648,19345,1163,-13620,-0.981765464,-0.166934021,-0.018824732,-0.923617981,0.377295254,6472,1710,-21720,-1174,-2643,-490,591,-439,1360,2
936379648,14649,4836,-11823,-0.988350678,-0.127099702,-0.009563674,-0.916397329,0.395492785,-3172,9594,-19952,-876,-2230,-518,621,-405,1352,2
936399648,10847,2823,-12234,-0.991493236,-0.10139657,0.004141341,-0.91284309,0.403862497,-10876,5950,-21774,-442,-1813,-692,653,-353,1341,2
936419648,8399,889,-12305,-0.992869904,-0.086179728,0.018846348,-0.910010977,0.409918508,-15808,2462,-22520,-334,-1503,-625,683,-311,1338,2
936439648,4728,-748,-11354,-0.994414886,-0.054173211,0.031962901,-0.905014012,0.419491164,-23156,-448,-20910,-444,-1229,-473,701,-293,1305,2
936459648,2554,-687,-11162,-0.995191563,-0.029339852,0.042164691,-0.898490775,0.432553818,-27510,10,-21360,-596,-946,-359,719,-255,1288,2
936479648,2295,385,-11217,-0.995304858,-0.010822328,0.049061387,-0.890483711,0.448214881,-28032,2380,-22076,-704,-677,-237,725,-223,1294,2
936499648,2496,1968,-12290,-0.995285103,0.002587972,0.051245416,-0.882032147,0.464496432,-27628,5618,-24662,-731,-463,-57,753,-201,1289,2
936519648,3132,2487,-13853,-0.995418008,-0.019372897,0.04439064,-0.874688651,0.479036635,-26358,6602,-27992,-703,-171,91,743,-169,1267,2
936539648,3908,4243,-13517,-0.994944047,-0.045309501,0.03323462,-0.868649386,0.490886182,-24808,9862,-26426,-562,39,139,741,-151,1240,2
936559648,6536,3290,-6910,-0.995334554,-0.037380332,0.028713873,-0.859189805,0.507547131,-19554,7524,-12588,-751,-251,245,739,-121,1228,2
936579648,11812,-2027,663,-0.996123763,-0.008024225,0.029015457,-0.849606307,0.523544183,-9028,-3100,1594,-743,-1129,36,755,-121,1228,2
936599648,17041,1710,4812,-0.994958794,0.044156773,0.040522233,-0.837982154,0.541333539,1452,4882,8422,-829,-1767,-614,767,-105,1195,2
936619648,31378,-931,12350,-0.992329342,0.075283146,0.058249253,-0.817165993,0.570930671,30218,48,22248,-1410,-1156,-775,783,-79,1160,2
936639648,22086,756,32764,-0.989212537,0.109374713,0.058292,-0.789699303,0.608521905,11728,3426,-3570,-1867,-1236,-144,795,-39,1129,2
936659648,24762,2987,30546,-0.987999693,0.120825734,0.057235726,-0.769901454,0.633628558,17138,7852,-8398,-1279,-349,-76,783,-37,1115,2
936679648,20170,5554,15105,-0.988526061,0.118360739,0.053120051,-0.767382002,0.637056319,7946,12848,26330,-176,156,177,803,13,1065,2
936699648,16316,10076,8341,-0.987691605,0.119853741,0.064349382,-0.79193728,0.604998402,250,22262,12766,1698,-116,-235,811,25,1082,2
936719648,-13389,12373,-24177,-0.989402449,0.084656965,0.087821967,-0.823826155,0.557322135,6296,27626,14440,2427,1298,-689,823,37,1076,2
936739648,30474,-2105,-5039,-0.987588152,0.073257893,0.114431953,-0.85885122,0.495912336,28540,-462,-12438,2960,211,-830,811,9,1132,2
936759648,21504,-21859,7424,-0.984978158,0.093058836,0.122882841,-0.859026056,0.49358378,10726,25836,11802,127,-783,-307,801,11,1108,2
936779648,16827,3175,-18121,-0.987111798,0.052528506,0.128449388,-0.846362108,0.513766801,1288,10552,27588,-933,1828,-266,787,25,1114,2
936799648,6756,8530,-18017,-0.986897595,0.01985687,0.138354055,-0.844367031,0.514534734,-18838,21582,28858,-42,1388,-377,791,39,1116,2
936819648,13860,532,-14842,-0.986189499,-0.02875513,0.143296244,-0.854077764,0.497113673,-4592,5864,-29438,690,1062,-318,769,39,1151,2
936839648,19269,-6799,-14643,-0.9849992,-0.059729928,0.138238773,-0.859180709,0.489223715,6238,-9076,-27308,417,1275,210,769,31,1159,2
936859648,18497,-3925,-10390,-0.983023625,-0.095751319,0.131327592,-0.854480477,0.499357326,4768,-3556,-17632,-415,1582,345,749,39,1152,2
936879648,16598,798,-9143,-0.978779666,-0.14500834,0.117035557,-0.84772756,0.514407717,1078,5572,-13860,-654,1728,510,751,25,1175,2
936899648,16433,465,-8581,-0.971142344,-0.197462056,0.10118526,-0.841765987,0.527439682,980,4364,-10936,-503,1940,621,729,25,1202,2
936919648,14777,-1487,-7339,-0.958775047,-0.253290819,0.091180829,-0.837540485,0.53587321,-1942,10,-6536,-284,2176,517,697,19,1227,2
936939648,14747,-2591,-4762,-0.944845155,-0.302530814,0.083693713,-0.831627101,0.546221729,-1498,-2518,422,-333,2173,552,703,7,1236,2
936959648,14788,-2601,-3095,-0.929436592,-0.348069089,0.076578264,-0.823260114,0.559825595,-862,-2784,5390,-447,2236,620,659,19,1278,2
936979648,14438,-2618,-1869,-0.912591849,-0.390723679,0.072411804,-0.814956976,0.572502574,-954,-2970,9344,-421,2283,535,633,31,1311,2
936999648,14155,-2496,-1086,-0.893747952,-0.432457898,0.068112881,-0.808637884,0.581963848,-852,-2870,12362,-245,2383,495,607,15,1309,2
937019648,15484,-2929,860,-0.872509748,-0.47427013,0.062950566,-0.803705186,0.589372998,2590,-3924,17760,-96,2611,510,567,25,1351,2
937039648,17435,-1533,2102,-0.851445373,-0.511280574,0.05834648,-0.794051545,0.602820447,7254,-1194,21530,-406,2571,550,541,-1,1354,2
937059648,17316,-782,240,-0.831362721,-0.543435771,0.056376432,-0.787491504,0.611621331,7676,284,18784,-287,2297,318,487,-9,1419,2
937079648,18080,3725,-4716,-0.815126346,-0.567907948,0.051311462,-0.784460315,0.615986701,9644,9370,9462,-197,1667,65,465,7,1430,2
937099648,16556,3384,-3004,-0.8064299,-0.580334455,0.049353852,-0.781473124,0.619962243,6936,8622,13346,-253,1186,-42,449,-7,1437,2
937119648,16613,-672,-347,-0.797207598,-0.592490092,0.052609714,-0.779270642,0.622452458,7438,384,19192,-144,1381,-21,417,-11,1456,2
937139648,16095,-1848,-31,-0.789343759,-0.602940805,0.051970012,-0.783675127,0.616925968,6680,-2064,20176,342,1297,-76,411,5,1438,2
937159648,15751,-346,1336,-0.787178457,-0.605913557,0.049169808,-0.788399398,0.611059926,6116,932,23060,347,1006,-109,387,-17,1467,2
937179648,14137,1543,-1684,-0.786370382,-0.607636996,0.041546185,-0.794277698,0.603960566,2822,4588,16936,410,727,-114,387,-27,1473,2
937199648,16399,-2440,-4317,-0.7827505,-0.612658594,0.034172042,-0.80515871,0.589753222,7380,-3870,11756,867,750,-90,385,-49,1485,2
937219648,20739,-5756,-7670,-0.775010847,-0.62268493,0.023316078,-0.816224806,0.574743669,16074,-10746,5076,882,540,-101,385,-77,1518,2
937239648,21592,-1943,-3767,-0.771951629,-0.62670416,0.016670077,-0.826004008,0.560762476,17886,-3338,13000,722,233,-200,383,-103,1532,2
937259648,25589,-1009,1461,-0.771985561,-0.626800187,0.011762492,-0.83316119,0.550142093,25878,-1630,23460,542,37,-148,427,-131,1508,2
937279648,28734,2727,8782,-0.77810825,-0.619312353,0.006115944,-0.839107733,0.541067412,31966,5656,-27678,502,-354,-71,429,-141,1524,2
937299648,28020,10648,9446,-0.792084675,-0.60145341,-0.007603119,-0.849903174,0.523828393,30076,21048,-26922,1008,-878,-42,493,-185,1534,2
937319648,26152,16980,8004,-0.809562599,-0.57726741,-0.028579419,-0.868204553,0.491939675,25756,-32512,-30580,1720,-1142,-176,517,-193,1538,2
937339648,20093,6863,-7395,-0.830285609,-0.544875629,-0.057380923,-0.8953605,0.437304614,12936,11844,3138,2720,-1411,-414,597,-261,1521,2
937359648,24503,-6134,-17451,-0.855428353,-0.50138104,-0.081405024,-0.9223457,0.371994613,20918,-14936,-18378,2968,-1799,-667,647,-313,1517,2
937379648,27748,-4812,-21508,-0.884822734,-0.447116958,-0.086454937,-0.938777722,0.326677648,26460,-12456,-28300,1828,-2309,-735,749,-367,1441,2
937399648,26672,-2362,-19331,-0.915254911,-0.383609997,-0.075374283,-0.944620121,0.311941218,23310,-7194,-26032,409,-2771,-653,857,-387,1353,2
937419648,25803,-6014,-12848,-0.943216765,-0.313312585,-0.057294287,-0.94484229,0.315205,20650,-13906,-15366,-362,-3048,-615,917,-389,1303,2
937439648,24216,-3207,-12665,-0.962946061,-0.250511641,-0.038215021,-0.940776665,0.330023281,16836,-7666,-17072,-805,-2662,-538,1009,-351,1199,2
937459648,19020,3368,-14399,-0.977115452,-0.191730814,-0.020885431,-0.936258733,0.344318448,5986,6052,-22476,-737,-2433,-522,1039,-349,1144,2
937479648,14833,3718,-12200,-0.98434034,-0.154297162,-0.011373348,-0.934299717,0.350627376,-2682,7238,-19810,-359,-2122,-519,1085,-315,1020,2
937499648,10699,2888,-11263,-0.988010999,-0.130074793,0.000131909,-0.934770491,0.349606102,-11070,5960,-18844,-38,-1695,-657,1091,-325,946,2
937519648,8536,986,-12082,-0.989706162,-0.116140047,0.015596933,-0.935729835,0.346721314,-15448,2556,-21066,37,-1423,-696,1111,-309,866,2
937539648,5398,-1159,-12294,-0.989780569,-0.110792765,0.032624856,-0.934282547,0.349218737,-21740,-1316,-21774,-190,-1199,-561,1117,-305,823,2
937559652,1810,-2081,-11088,-0.991627086,-0.084377619,0.047021297,-0.929834563,0.358964106,-28892,-2618,-19398,-469,-1005,-513,1109,-281,779,2
937579652,2070,-277,-11395,-0.992736278,-0.061954224,0.058638816,-0.923616335,0.373158526,-28400,1368,-20754,-650,-836,-395,1091,-261,756,2
937599652,2868,1271,-12734,-0.991876826,-0.073586578,0.060354567,-0.916535988,0.390224895,-26822,4628,-23972,-818,-571,-128,1099,-273,694,2
937619652,3528,2397,-14221,-0.990637641,-0.091655172,0.056050781,-0.908419248,0.409630885,-25472,6800,-26334,-908,-282,60,1105,-261,669,2
937639652,4398,4051,-13864,-0.988809679,-0.113179523,0.046112005,-0.900392463,0.428262157,-23686,9890,-24862,-849,-80,172,1079,-263,649,2
937659652,6679,4255,-5327,-0.990453206,-0.099577937,0.041651888,-0.887429588,0.455072474,-19108,9876,-7382,-1166,-457,342,1101,-283,662,2
937679652,10003,-2332,25,-0.993510993,-0.062066142,0.043348392,-0.875132715,0.478251945,-12570,-3242,2100,-1052,-1440,48,1103,-283,602,2
937699652,13531,-188,1876,-0.994718544,-0.020408208,0.057022075,-0.867860693,0.490036918,-5542,1534,4590,-563,-1429,-550,1113,-293,558,2
937719652,26216,4038,8787,-0.993483115,-0.001594521,0.078922882,-0.856497047,0.506815506,19866,10662,17634,-819,-665,-849,1085,-267,508,2
937739652,27786,-3333,32764,-0.991759341,0.046083968,0.089052469,-0.829913938,0.548005736,23036,-3746,-1486,-1970,-1734,-423,1083,-265,495,2
937759652,22439,978,32764,-0.990143318,0.073316537,0.089182023,-0.803138312,0.586705139,12408,4880,-2388,-1890,-895,-87,1059,-283,420,2
937779652,22372,5151,16073,-0.991250005,0.070625877,0.078301774,-0.783528563,0.614282263,12250,12868,29838,-1385,270,373,1037,-291,418,2
937799652,21117,12796,5502,-0.991137711,0.068368446,0.081463819,-0.798639545,0.59395754,9750,28262,8766,1049,53,-33,1055,-315,378,2
937819652,-4526,15023,-14410,-0.989860136,0.062310023,0.099773745,-0.820782732,0.559823586,24030,-32222,-30850,1709,136,-612,1027,-295,369,2
937839652,22499,-3172,882,-0.987701302,0.036370894,0.129295814,-0.853695914,0.501213476,12586,-2112,614,2796,783,-1042,1017,-283,358,2
937859652,17214,-7648,-2513,-0.985335633,0.033325538,0.147161784,-0.861825289,0.481945788,2102,-10750,-6278,843,-145,-343,999,-249,355,2
937879652,13622,2926,-19708,-0.983826805,-0.010257639,0.159251757,-0.86210157,0.477598732,-5012,11054,26470,181,1809,-464,989,-235,391,2
937899652,10943,3027,-19362,-0.981642818,-0.042650688,0.166471179,-0.874298019,0.45212188,-10298,11486,28222,1153,1190,-299,985,-241,404,2
937919652,15485,-6840,-16005,-0.979130307,-0.076300638,0.168725591,-0.88288385,0.434152119,-1126,-8172,-29502,816,1295,-118,969,-229,404,2
937939652,18696,-8329,-14435,-0.976742819,-0.111125506,0.162175016,-0.882701442,0.43696636,5374,-11362,-25218,-65,1499,301,987,-225,427,2
937959652,17377,-4134,-9136,-0.97144269,-0.156185726,0.157303593,-0.874756655,0.45473822,2852,-3188,-13446,-799,1656,412,1003,-241,459,2
937979652,16603,1316,-8115,-0.965251138,-0.200777659,0.142459906,-0.864403386,0.478805117,1532,7488,-9866,-1004,1763,574,1003,-247,483,2
937999652,16404,2808,-6180,-0.957254531,-0.244857762,0.1240644,-0.854216745,0.501636965,1420,9946,-4416,-888,1894,657,1029,-265,529,2
938019652,15354,1231,-5665,-0.945400625,-0.292351473,0.109559634,-0.848936019,0.513852721,-290,6228,-1778,-406,2046,530,1023,-293,541,2
938039652,14945,-1685,-4388,-0.930673148,-0.338841664,0.099872684,-0.845209979,0.521950297,-622,-104,2374,-196,2098,522,1005,-303,623,2
938059652,14421,-3104,-3054,-0.914820151,-0.381173449,0.092664557,-0.839835925,0.531957995,-1098,-3288,6580,-235,2154,598,1027,-311,630,2
938079652,13964,-4584,-2592,-0.896557614,-0.422567964,0.090092294,-0.8333872,0.54250115,-1388,-6438,8918,-264,2227,569,1013,-341,687,2
938099652,13859,-5066,-2008,-0.875277208,-0.464531828,0.090456627,-0.826633802,0.552703006,-864,-7426,11536,-260,2396,510,1027,-345,767,2
938119652,15523,-3277,-880,-0.851298189,-0.507187191,0.088992431,-0.819060182,0.564185794,3342,-3764,15300,-320,2642,472,1023,-361,765,2
938139652,17950,966,813,-0.829460062,-0.543028392,0.082829596,-0.808957934,0.579606472,9024,4766,19946,-510,2537,486,1013,-365,846,2
938159652,16617,2798,875,-0.809345754,-0.573779935,0.072043098,-0.802401388,0.590103161,7060,8174,21072,-254,2330,423,997,-373,875,2
938179652,17392,2786,-1442,-0.791479865,-0.598922985,0.063253603,-0.800595587,0.593541529,9164,7852,17176,-14,1960,176,981,-377,931,2
938199652,16557,2982,-6357,-0.778598461,-0.616013775,0.058608936,-0.799930949,0.594938805,7788,8102,7698,-68,1279,-9,971,-377,965,2
938219652,16854,359,-3377,-0.76904165,-0.627701342,0.059268485,-0.798648968,0.596582502,8798,2730,14182,-96,1238,-28,961,-387,988,2
938239652,16309,-2214,3,-0.762366377,-0.635778476,0.058618959,-0.803709798,0.589764159,8032,-2598,21332,400,1229,-115,947,-385,1013,2
938259652,15623,-483,911,-0.758504238,-0.640936915,0.05321937,-0.810564397,0.580805516,6832,786,23344,531,1122,-140,937,-383,1002,2
938279652,15502,125,-618,-0.758374685,-0.641524622,0.048287049,-0.814720856,0.575377058,6552,1878,20248,346,807,-66,929,-393,1029,2
938299652,15958,333,-2612,-0.759102181,-0.641498376,0.037980008,-0.822265627,0.565311393,7372,1964,16182,647,630,-51,929,-415,1030,2
938319652,19945,-3180,-3918,-0.751624156,-0.650598282,0.02596434,-0.832003321,0.551432213,15254,-5506,13494,855,503,-52,919,-417,1020,2
938339652,23051,-4024,-3626,-0.748292644,-0.654702181,0.015623086,-0.84082498,0.538190788,21578,-7534,14204,776,245,-80,909,-441,1003,2
938359652,26836,-3548,1007,-0.749615937,-0.653431058,0.005128749,-0.849922303,0.523847012,29104,-6926,23428,812,-39,-105,903,-427,1011,2
938379652,32389,-4802,9301,-0.760269197,-0.640882121,0.002317516,-0.854845788,0.515665647,-25678,-9526,-25924,382,-624,-141,907,-459,983,2
938399652,26953,13091,7565,-0.77962479,-0.617443934,-0.001967335,-0.859332616,0.508149108,28350,26120,-30162,396,-1191,-63,905,-451,956,2
938419652,24567,21960,9423,-0.802560095,-0.587005023,-0.022132814,-0.87339635,0.482865578,22814,-22340,-27418,1444,-1488,-37,919,-469,900,2
938439652,20213,7240,-11608,-0.820410306,-0.559692459,-0.05506471,-0.900495753,0.426810622,13500,12676,-4802,2851,-1183,-349,911,-479,865,2
938459652,24661,-5097,-20384,-0.841538245,-0.524115132,-0.082724288,-0.931903599,0.346870033,21680,-12906,-23480,3547,-1400,-948,909,-481,802,2
938479652,27419,-6789,-24228,-0.866648335,-0.481142588,-0.085701918,-0.947999131,0.298647456,26404,-16386,-32634,1854,-1808,-920,903,-453,752,2
938499652,26581,-7290,-17936,-0.898586914,-0.421640525,-0.071952018,-0.95217897,0.288769713,23682,-16936,-22002,143,-2675,-667,883,-445,669,2
938519652,23971,-6034,-13896,-0.928228578,-0.35554849,-0.052445711,-0.951525079,0.295046564,17480,-13788,-16076,-528,-2918,-602,855,-437,583,2
938539652,22670,-2788,-14243,-0.950727053,-0.293757744,-0.031623448,-0.94614774,0.314851284,14142,-6610,-18806,-1052,-2665,-499,849,-439,558,2
938559652,17707,1703,-13760,-0.968027676,-0.233244855,-0.011267709,-0.939366853,0.336072756,3652,3038,-19830,-1078,-2534,-528,805,-421,472,2
938579652,15005,2740,-11852,-0.977548599,-0.192318173,0.004306019,-0.934461951,0.35033348,-2126,5766,-17812,-768,-2223,-632,765,-411,453,2
938599652,10889,2380,-12279,-0.982464164,-0.165072262,0.020515912,-0.931511564,0.357706932,-10530,5586,-19726,-471,-1828,-748,727,-397,416,2
938619652,7567,721,-12470,-0.984412415,-0.149994398,0.038065728,-0.928800566,0.363337081,-17244,2760,-20746,-392,-1486,-720,697,-387,379,2
938639652,4522,-859,-12055,-0.987879088,-0.115529405,0.055971013,-0.92383704,0.372979186,-23354,118,-20298,-503,-1328,-636,645,-373,370,2
938659652,2199,-1180,-10832,-0.989922605,-0.08694214,0.071464067,-0.91666048,0.387904968,-28052,-18,-18804,-720,-1077,-527,621,-379,379,2
938679652,2525,231,-11212,-0.99086722,-0.063184369,0.083201054,-0.907528957,0.406719087,-27428,3188,-20348,-868,-858,-381,599,-373,343,2
938699652,3833,844,-12059,-0.991404399,-0.045583911,0.089454433,-0.897012904,0.42840199,-24828,4618,-22620,-977,-591,-168,573,-375,337,2
938719652,4125,1510,-13954,-0.990629172,-0.062825281,0.088532727,-0.88718289,0.448906159,-24252,6044,-26750,-1020,-283,-44,533,-379,337,2
938739652,3935,3834,-14349,-0.989357831,-0.086286614,0.081423473,-0.877097763,0.469694715,-24602,10600,-26742,-1013,6,55,525,-381,330,2
938759652,5513,4831,-7784,-0.990143191,-0.078612419,0.077981689,-0.860831182,0.499481669,-21434,12218,-12978,-1342,-155,287,499,-405,335,2
938779652,10725,766,208,-0.992252711,-0.051196927,0.075677987,-0.843041915,0.52951639,-11082,4012,2106,-1395,-969,218,497,-425,321,2
938799652,15365,375,5663,-0.993337898,0.002167499,0.080386968,-0.829522764,0.549876507,-1832,3480,11614,-953,-1629,-251,451,-433,311,2
938819652,31025,607,9631,-0.990754737,0.042250153,0.101175889,-0.811030077,0.573735086,29564,4528,17892,-1193,-1485,-840,427,-419,276,2
938839652,22714,-380,32001,-0.989397503,0.066927126,0.101284091,-0.782794077,0.611842958,12980,2558,-3708,-1909,-766,-76,401,-465,296,2
938859652,24616,8257,31546,-0.988175336,0.089383399,0.096637958,-0.761707161,0.638771338,16838,19680,-5364,-1385,-738,111,379,-475,267,2
938879652,20225,4198,19028,-0.987981131,0.097908264,0.090641789,-0.754413188,0.648292866,8072,11364,-30690,-491,-259,226,347,-489,279,2
938899652,22180,9279,14023,-0.985499658,0.116339354,0.096391946,-0.770082898,0.628642304,12056,21714,24240,1056,-810,-97,311,-483,274,2
938919652,-4681,17599,-19500,-0.987006087,0.077492636,0.116579064,-0.799329657,0.587137308,23796,-26522,24024,2145,1408,-594,283,-479,287,2
938939652,26766,2104,-7404,-0.983956695,0.059775008,0.148857497,-0.843797922,0.512605323,21220,9080,-16704,3617,286,-1050,277,-423,274,2
938959652,21495,-20008,1663,-0.982461652,0.06086592,0.157867609,-0.856473627,0.488136109,10786,30674,1336,1154,-176,-274,259,-411,283,2
938979652,12231,2588,-21527,-0.982683219,0.018060379,0.166193064,-0.853107933,0.491324708,-7756,10602,21904,-152,1833,-318,257,-421,290,2
938999652,10606,5946,-18241,-0.981463529,-0.014500575,0.172799597,-0.854529664,0.486513019,-10962,17532,29536,214,1352,-243,257,-407,291,2
939019652,15547,-3726,-15825,-0.980209641,-0.045716513,0.174421665,-0.859619714,0.476912003,-1032,-1762,-30148,452,1252,-55,239,-403,325,2
939039652,19350,-5645,-13098,-0.979198556,-0.078493107,0.166936815,-0.856225198,0.485529488,6598,-5842,-23610,-334,1461,357,259,-407,329,2
939059652,17589,-2869,-8820,-0.97585864,-0.123933114,0.159358097,-0.846668355,0.504794365,3150,-530,-13888,-890,1661,426,247,-417,324,2
939079652,16778,2539,-7746,-0.971778292,-0.167486556,0.141589381,-0.83596655,0.527386492,1682,9968,-10232,-968,1692,574,245,-437,336,2
939099652,15938,3730,-6325,-0.965020994,-0.214277515,0.12092996,-0.829260156,0.54282805,234,11736,-5758,-584,1888,597,267,-445,359,2
939119652,14763,-153,-5002,-0.954106791,-0.263101229,0.108818436,-0.827603962,0.547883179,-1766,3354,-1414,-100,2046,441,273,-457,368,2
939139652,14284,-3398,-3073,-0.94085113,-0.309102887,0.102689602,-0.826801978,0.550350925,-2262,-3558,4108,44,2134,443,265,-463,365,2
939159652,14183,-4802,-1787,-0.925456272,-0.352959486,0.099412423,-0.823878502,0.555322435,-1924,-6570,8240,-38,2241,483,291,-463,378,2
939179652,14322,-5368,-770,-0.907827673,-0.396009402,0.099123862,-0.819851916,0.561381124,-1020,-7748,11776,-98,2370,436,317,-471,398,2
939199652,15665,-3985,1425,-0.888903625,-0.436707051,0.097126225,-0.814210624,0.569862336,2380,-4952,17662,-180,2536,436,315,-487,412,2
939219652,17980,-929,3096,-0.871957239,-0.470588032,0.092053188,-0.804007117,0.585116562,7660,1178,22188,-498,2415,508,323,-485,414,2
939239652,18322,-1486,2027,-0.856578484,-0.498573298,0.087461359,-0.79822256,0.593701167,8856,-118,20930,-193,2111,380,331,-507,437,2
939259652,17646,1530,-1115,-0.841588244,-0.524373414,0.080499818,-0.796656147,0.596782578,7960,5850,15366,-14,1853,153,341,-499,450,2
939279652,16522,3944,-3256,-0.830517357,-0.542581115,0.075185571,-0.794149211,0.60086978,6040,10642,11566,-200,1372,-5,339,-491,433,2
939299652,15086,1274,-3875,-0.817355897,-0.562202619,0.073022066,-0.793507986,0.601945197,3580,5088,10960,-54,1430,-40,325,-489,466,2
939319652,14913,-732,-4453,-0.80347676,-0.58222558,0.068484808,-0.799226319,0.594810946,3680,796,10450,433,1413,-70,333,-493,468,2
939339652,15191,-1075,-3130,-0.79378934,-0.595882405,0.06520142,-0.804570211,0.587954549,4620,-28,13608,409,1220,-83,319,-513,489,2
939359652,15953,-1419,-1080,-0.791912191,-0.597961433,0.067406805,-0.805005763,0.587063119,6280,-662,17868,51,824,-63,309,-501,475,2
939379652,15802,-15,-2224,-0.791803932,-0.598619828,0.063031075,-0.808922678,0.582126126,5952,2088,15548,315,645,-61,297,-497,496,2
939399652,17336,168,-2721,-0.791434279,-0.600148324,0.051721539,-0.8176884,0.570807545,9020,2084,14598,740,649,-32,299,-507,475,2
939419652,20786,-2498,-5690,-0.784512876,-0.610000078,0.041144175,-0.827888498,0.556731267,15862,-3648,8610,835,498,-63,293,-503,487,2
939439652,21978,-2651,-3116,-0.782047451,-0.613641236,0.032245785,-0.837283568,0.543006672,18326,-4244,13878,769,198,-104,271,-503,485,2
939459652,24362,-1884,2887,-0.782837052,-0.612937156,0.023973098,-0.845125733,0.531054562,23068,-2980,25862,678,-13,-67,243,-495,468,2
939479656,29908,-1686,8641,-0.789818855,-0.604272531,0.01503848,-0.852271888,0.519778039,-31604,-2878,-28450,663,-419,-19,213,-501,465,2
939499656,27883,9725,14204,-0.802017765,-0.588234732,0.005084484,-0.857890919,0.510581478,29478,19620,-17846,606,-779,87,187,-505,442,2
939519656,22723,15033,8122,-0.822011502,-0.559920195,-0.013810375,-0.87297014,0.483970342,18490,29614,-30912,1471,-1359,-67,159,-493,461,2
939539656,19787,9104,-3835,-0.842629671,-0.527075842,-0.042876848,-0.89855212,0.432350859,11924,16804,9666,2620,-1466,-271,83,-491,464,2
939559656,24951,-4491,-20777,-0.863130234,-0.490390092,-0.066239446,-0.927821293,0.361135364,21558,-11154,-25390,3186,-1494,-770,59,-467,465,2
939579656,29175,-2824,-20776,-0.888417995,-0.443246061,-0.06751155,-0.94682187,0.307120165,29194,-7860,-26962,2087,-1979,-1028,-33,-473,505,2
939599656,26197,-5202,-19133,-0.916175384,-0.384771364,-0.056499491,-0.954622895,0.283996187,22336,-12254,-25604,725,-2528,-795,-79,-473,559,2
939619656,25562,-7443,-14536,-0.941427615,-0.321222559,-0.039451248,-0.956412949,0.280772617,20234,-16178,-18492,-97,-2732,-673,-99,-459,594,2
939639656,22319,-1196,-14159,-0.960222842,-0.262966085,-0.019532699,-0.953824477,0.291726809,13140,-3030,-19662,-665,-2461,-609,-127,-495,671,2
939659656,18607,1777,-14118,-0.974310068,-0.206357125,-0.001541461,-0.949606607,0.305883329,5252,3506,-21436,-742,-2330,-539,-121,-489,700,2
939679656,14202,2141,-12128,-0.981308877,-0.171993174,0.012553783,-0.947078928,0.314030141,-3850,4816,-19090,-479,-2000,-615,-115,-473,794,2
939699656,11217,2294,-11734,-0.984951623,-0.148603175,0.026397127,-0.945592357,0.317720769,-9938,5608,-19164,-284,-1644,-687,-109,-481,832,2
939719656,8003,299,-12294,-0.986280913,-0.135705644,0.042621505,-0.943775656,0.321369272,-16420,2042,-20856,-283,-1384,-654,-75,-467,907,2
939739656,4865,-1445,-11888,-0.989073174,-0.104168708,0.059136429,-0.939283052,0.331329074,-22702,-950,-20344,-497,-1210,-586,-33,-433,957,2
939759656,2601,-1014,-11223,-0.99082686,-0.074207313,0.073842159,-0.932997361,0.345861427,-27278,392,-20004,-679,-1132,-508,-27,-445,972,2
939779656,2456,-59,-11220,-0.991707014,-0.047953371,0.084693709,-0.925514085,0.36328667,-27594,2656,-20862,-784,-966,-361,-11,-395,1029,2
939799656,3334,520,-12523,-0.992038552,-0.027685734,0.090327669,-0.916017763,0.385506442,-25848,3998,-24132,-975,-696,-162,53,-375,1035,2
939819656,3936,1315,-13806,-0.991543151,-0.045615824,0.089741708,-0.906597905,0.407721056,-24642,5682,-27028,-1077,-262,-60,59,-339,1055,2
939839656,4481,4264,-13240,-0.990812749,-0.069161035,0.08056308,-0.896915529,0.430489525,-23540,11474,-25058,-1075,46,72,61,-333,1086,2
939859656,6747,5263,-4097,-0.992090153,-0.055436889,0.074831488,-0.879543083,0.466074726,-19032,12978,-6364,-1572,-388,363,67,-301,1091,2
939879656,12450,-1842,1750,-0.993906051,-0.013975739,0.071516889,-0.860730127,0.500664202,-7696,-1340,3980,-1579,-1530,223,65,-265,1095,2
939899656,15275,2322,3520,-0.993482267,0.034392308,0.072957915,-0.847696329,0.522383045,-2014,7248,6116,-995,-1619,-299,69,-245,1073,2
939919656,27962,4005,10700,-0.990949435,0.05734366,0.091782225,-0.826513316,0.552694701,23436,11018,19532,-1453,-772,-801,97,-221,1102,2
939939656,24142,2500,32764,-0.987647315,0.096446482,0.095375485,-0.800092304,0.5898962,15890,8124,-3146,-1821,-1380,-256,93,-199,1091,2
939959656,23445,4503,31998,-0.984865891,0.125507852,0.091641287,-0.776572663,0.621288858,14602,12008,-5642,-1587,-1000,7,127,-169,1075,2
939979656,20042,7228,14096,-0.985726511,0.124404041,0.083559638,-0.766922781,0.634349464,7780,17194,24114,-678,151,274,135,-133,1072,2
939999656,20978,11561,5523,-0.984519416,0.126909195,0.093567149,-0.790038263,0.603687298,9682,26188,6894,1610,-204,-183,161,-93,1089,2
940019656,-5077,14720,-8684,-0.986470599,0.114198005,0.089111649,-0.813352648,0.572435712,23170,-32426,-21522,1623,-132,-530,185,-75,1088,2
940039656,26261,-4121,-2867,-0.986673966,0.077684423,0.11937282,-0.852375548,0.505886726,20124,-4330,-8220,3252,1202,-904,195,-81,1121,2
940059656,15250,-12452,-1079,-0.982358851,0.079899814,0.150001619,-0.864428826,0.476309251,-1764,-20498,-4888,1328,-367,-496,215,-61,1148,2
940079656,16897,627,-17199,-0.983399807,0.03767479,0.158530963,-0.864399409,0.473592987,1552,6432,29918,132,1764,-314,221,-59,1154,2
940099656,10116,4605,-18792,-0.982901605,0.005446982,0.165451991,-0.871537523,0.45784018,-11986,14610,27780,721,1254,-240,219,-39,1138,2
940119656,14297,-3916,-15060,-0.981613196,-0.024896003,0.170549447,-0.877378128,0.444524907,-3584,-2266,-29298,602,1195,-189,197,-13,1139,2
940139656,18530,-7180,-13302,-0.980900289,-0.05650598,0.166353337,-0.878437368,0.443990586,4908,-8932,-24746,60,1340,196,193,-29,1160,2
940159656,18364,-4915,-9869,-0.979366248,-0.091424534,0.158938526,-0.87202544,0.459171554,4620,-4640,-16728,-628,1590,381,189,35,1153,2
940179656,16400,680,-7959,-0.976275805,-0.13704244,0.144628013,-0.863610223,0.479634842,778,6254,-11716,-891,1685,510,173,35,1160,2
940199656,16588,1762,-6681,-0.971009133,-0.182617638,0.1266953,-0.854935082,0.499809926,1326,7884,-7544,-812,1816,632,159,41,1148,2
940219656,15395,1342,-6302,-0.962194365,-0.231707074,0.110746268,-0.849436134,0.512804836,-776,6492,-5134,-471,1975,563,165,47,1137,2
940239656,14600,-2219,-4624,-0.950382635,-0.278771996,0.102128088,-0.84549487,0.521055771,-1968,-1108,-94,-246,2060,480,141,79,1152,2
940259656,14737,-3301,-2693,-0.937297422,-0.321364867,0.096710993,-0.839621127,0.531569844,-1224,-3554,5310,-320,2086,525,131,75,1131,2
940279656,14767,-3858,-1739,-0.922419515,-0.362349547,0.093367572,-0.832540903,0.543244665,-640,-4820,8658,-362,2176,530,111,75,1148,2
940299656,15170,-2660,-1258,-0.906200958,-0.401923539,0.088910482,-0.825307788,0.554984223,746,-2496,10984,-354,2234,503,87,89,1158,2
940319656,15744,-843,322,-0.890591666,-0.436564066,0.08115177,-0.819807127,0.564275555,2486,990,15386,-210,2191,462,53,83,1138,2
940339656,16664,-1333,1192,-0.874538353,-0.468782807,0.073960302,-0.816312976,0.570313677,4900,-260,18240,-44,2184,416,7,99,1121,2
940359656,16879,210,1359,-0.858236577,-0.49876138,0.067250699,-0.812658872,0.576368308,5910,2690,19576,-97,2153,313,29,91,1107,2
940379656,17128,1122,679,-0.844184406,-0.522721145,0.063018525,-0.809105778,0.581889143,6882,4426,18970,-163,1876,170,-9,107,1116,2
940399656,17661,1433,-249,-0.829732981,-0.545722581,0.059400522,-0.808412602,0.583260862,8420,4940,17840,-11,1809,31,-11,93,1091,2
940419656,16656,-622,-1321,-0.814639209,-0.567851517,0.058794804,-0.809385544,0.581940275,6894,696,16396,102,1749,-23,-47,123,1102,2
940439656,15448,-2035,-2087,-0.802346915,-0.584842801,0.060496045,-0.810213406,0.580610869,4868,-2166,15380,110,1470,-7,-57,125,1099,2
940459656,14769,-1412,-1834,-0.795725239,-0.59345811,0.063361088,-0.809457125,0.581360381,3748,-786,16174,-30,1091,-22,-57,121,1095,2
940479656,15305,533,-2498,-0.794124305,-0.595821954,0.061227796,-0.8111801,0.579173982,4866,3158,14888,120,717,-77,-57,129,1096,2
940499656,15825,1110,-2733,-0.793338532,-0.597612919,0.05264715,-0.817389034,0.571168046,5928,4058,14474,491,655,-77,-51,127,1086,2
940519656,18329,-2795,-5288,-0.790661465,-0.601735698,0.044779497,-0.827123471,0.557574665,10956,-4224,9432,840,649,-43,-49,125,1077,2
940539656,21026,-3484,-6301,-0.784330975,-0.610426798,0.033953541,-0.837229054,0.542916521,16344,-5852,7408,856,453,-69,-43,121,1084,2
940559656,22828,-3909,-2345,-0.78172471,-0.614150973,0.02752645,-0.843371987,0.533664316,20038,-6916,15434,530,213,-44,-33,113,1092,2
940579656,28678,-2526,3437,-0.783790717,-0.611791307,0.02260999,-0.846364602,0.529130962,31672,-4312,26918,309,-89,51,-21,127,1075,2
940599656,29891,3318,12523,-0.792114556,-0.601236502,0.017934928,-0.849025697,0.525019666,-31714,7224,-20790,286,-507,57,23,131,1097,2
940619656,25737,13325,5921,-0.805305619,-0.583731184,0.007187248,-0.857189018,0.511742046,25078,26888,30980,782,-853,0,67,123,1071,2
940639656,22881,14070,2870,-0.823809143,-0.557310987,-0.01463711,-0.876652827,0.477211801,18744,27660,24038,1842,-1262,-176,87,103,1087,2
940659656,19995,3239,-12141,-0.846328335,-0.521176506,-0.042838731,-0.903030222,0.422854718,12214,5076,-7132,2697,-1615,-350,143,85,1079,2
940679656,25042,-3730,-18685,-0.868074814,-0.482509959,-0.05966915,-0.928380853,0.360845638,21592,-9418,-21482,2708,-1619,-766,159,83,1082,2
940699656,26602,-3055,-18996,-0.895333322,-0.430566538,-0.057944324,-0.942472218,0.322221231,23828,-8008,-23830,1460,-2246,-807,211,101,1104,2
940719656,25200,-4451,-17274,-0.922517935,-0.370492408,-0.049115301,-0.947916172,0.307164952,20134,-10508,-22358,463,-2602,-567,261,87,1064,2
940739656,23886,-7237,-12247,-0.947421128,-0.304299617,-0.031290159,-0.948544616,0.307577705,16684,-15498,-14468,-243,-2832,-650,293,87,1041,2
940759656,21993,-3826,-13752,-0.965652267,-0.243000353,-0.010664287,-0.943798216,0.323395278,12304,-8000,-19496,-865,-2570,-591,353,95,998,2
940779656,16854,1957,-12894,-0.97856855,-0.185395755,0.008026261,-0.93820475,0.339511385,1606,4178,-19676,-828,-2355,-563,371,109,947,2
940799656,14584,2853,-11988,-0.984510701,-0.152407296,0.021759487,-0.935237588,0.347668989,-3178,6584,-19456,-485,-1931,-659,407,95,915,2
940819656,11301,2164,-12167,-0.98713035,-0.131695854,0.037410227,-0.934346851,0.348807167,-9832,5708,-20616,-185,-1564,-777,417,101,861,2
940839656,8787,-43,-12705,-0.987854501,-0.119680801,0.055435473,-0.932100534,0.352441218,-14888,1764,-22200,-296,-1336,-710,437,93,841,2
940859656,5606,-1437,-12141,-0.987353999,-0.113396067,0.074034638,-0.927273076,0.361653905,-21248,-516,-21370,-547,-1194,-584,427,105,786,2
940879656,3401,-1309,-11981,-0.988673255,-0.08588765,0.088745485,-0.918803658,0.379176674,-25616,292,-21130,-819,-1001,-488,433,85,786,2
