timestamp,ax,ay,az,roll1,roll2,pitch,yaw1,yaw2,fx,fy,fz,gx,gy,gz,mx,my,mz,step
127700584,16029,-865,-2384,-0.936059536,-0.351841648,-0.455544907,-0.999847695,-0.017452406,3112,-16840,-4294,56,-20,17,365,539,213,2
127740584,16043,-902,-2388,-0.918446381,-0.395545503,-0.866896749,-0.950515732,-0.31067643,17048,-30466,320,63,-28,13,395,537,209,2
127760584,16096,-764,-2406,-0.917060074,-0.398749069,-0.863395551,-0.951594404,-0.307356618,16960,-29966,186,62,-20,21,387,543,204,2
127780584,16083,-913,-2388,-0.91636273,-0.400349033,-0.858959897,-0.952661481,-0.304033061,16690,-30126,242,62,-20,16,393,545,208,2
127800584,16030,-915,-2429,-0.914959668,-0.403545296,-0.85445883,-0.953190668,-0.302369891,16340,-29992,186,66,-9,13,371,545,203,2
127820584,16055,-886,-2487,-0.913545458,-0.406736643,-0.849892693,-0.954240329,-0.299040792,16150,-29792,82,71,-20,17,385,527,184,2
127840584,16041,-934,-2418,-0.912834177,-0.40833046,-0.846193166,-0.955278362,-0.29570805,15884,-29750,252,55,-21,17,399,525,212,2
127880584,16086,-844,-2260,-0.911403277,-0.411514359,-0.841510782,-0.955793015,-0.294040325,15740,-29426,592,52,-22,19,383,537,216,2
127900584,16093,-812,-2333,-0.910683661,-0.41310443,-0.836764313,-0.956813584,-0.290702194,15522,-29222,460,66,-16,19,383,527,225,2
127920584,16056,-812,-2478,-0.909236109,-0.416280792,-0.832921241,-0.957319498,-0.289031797,15218,-29078,190,59,-11,20,393,533,217,2
127940588,16035,-868,-2501,-0.875464527,-0.483282383,0.144356201,-0.989272333,-0.146083029,0,0,0,64,-17,10,379,537,211,2
127960588,16058,-860,-2462,-0.875464527,-0.483282383,0.142628934,-0.989525789,-0.144356201,0,0,0,65,-25,5,391,531,213,2
127980588,16102,-855,-2423,-0.875464527,-0.483282383,0.142628934,-0.989525789,-0.144356201,0,0,0,58,-22,13,377,535,217,2
128000588,16037,-903,-2352,-0.875464527,-0.483282383,0.140901232,-0.989525789,-0.144356201,0,0,0,58,-24,11,373,509,214,2
128020588,16083,-884,-2379,-0.875464527,-0.483282383,0.140901232,-0.989525789,-0.144356201,0,0,0,56,-20,16,401,519,220,2
128040588,16034,-823,-2351,-0.875464527,-0.483282383,0.139173101,-0.989525789,-0.144356201,0,0,0,56,-16,16,387,531,219,2
128060588,16093,-905,-2424,-0.875464527,-0.483282383,0.139173101,-0.989525789,-0.144356201,0,0,0,65,-16,13,389,521,223,2
128080588,16078,-910,-2437,-0.875464527,-0.483282383,0.137444546,-0.989525789,-0.144356201,0,0,0,54,-26,18,387,519,227,2
128100588,16044,-909,-2444,-0.875464527,-0.483282383,0.137444546,-0.989272333,-0.146083029,0,0,0,57,-21,14,385,529,249,2
128120588,16079,-896,-2382,-0.875464527,-0.483282383,0.135715572,-0.989272333,-0.146083029,0,0,0,64,-22,13,389,533,223,2
128140588,16055,-896,-2380,-0.875464527,-0.483282383,0.135715572,-0.989272333,-0.146083029,0,0,0,69,-22,14,405,543,228,2
128160588,16052,-907,-2326,-0.875464527,-0.483282383,0.133986185,-0.989272333,-0.146083029,0,0,0,54,-17,17,381,525,223,2
128180588,16129,-907,-2428,-0.875464527,-0.483282383,0.133986185,-0.989272333,-0.146083029,0,0,0,60,-13,25,381,529,213,2
128200588,16005,-929,-2507,-0.875464527,-0.483282383,0.133986185,-0.989272333,-0.146083029,0,0,0,54,-20,15,379,537,211,2
128220588,16033,-928,-2494,-0.875464527,-0.483282383,0.13225639,-0.989272333,-0.146083029,0,0,0,55,-18,22,383,533,215,2
128240588,16061,-884,-2514,-0.875464527,-0.483282383,0.13225639,-0.989272333,-0.146083029,0,0,0,56,-15,17,391,547,218,2
128260588,16056,-856,-2521,-0.875464527,-0.483282383,0.130526192,-0.989272333,-0.146083029,0,0,0,42,-29,23,391,533,207,2
128280588,15987,-805,-2512,-0.875464527,-0.483282383,0.130526192,-0.989272333,-0.146083029,0,0,0,42,-26,21,395,529,209,2
128300588,16086,-769,-2410,-0.875464527,-0.483282383,0.128795597,-0.989272333,-0.146083029,0,0,0,39,-31,20,391,521,229,2
128320592,16098,-756,-2385,-0.875464527,-0.483282383,0.128795597,-0.989272333,-0.146083029,0,0,0,52,-21,16,387,523,219,2
128340592,16068,-863,-2330,-0.875464527,-0.483282383,0.128795597,-0.989272333,-0.146083029,0,0,0,58,-20,17,385,545,209,2
128360592,16060,-796,-2405,-0.875464527,-0.483282383,0.127064609,-0.989272333,-0.146083029,0,0,0,56,-21,12,383,529,211,2
128380592,16096,-766,-2374,-0.875464527,-0.483282383,0.127064609,-0.989272333,-0.146083029,0,0,0,44,-26,11,385,529,209,2
128400592,16047,-875,-2390,-0.875464527,-0.483282383,0.125333234,-0.989272333,-0.146083029,0,0,0,52,-25,17,389,543,229,2
128420592,16045,-807,-2455,-0.875464527,-0.483282383,0.125333234,-0.989272333,-0.146083029,0,0,0,47,-23,15,365,549,209,2
128440592,16074,-827,-2379,-0.875464527,-0.483282383,0.125333234,-0.989272333,-0.146083029,0,0,0,58,-26,14,399,541,218,2
128460592,16083,-842,-2299,-0.875464527,-0.483282383,0.123601477,-0.989272333,-0.146083029,0,0,0,57,-24,12,387,545,202,2
128480592,16058,-803,-2334,-0.875464527,-0.483282383,0.123601477,-0.989272333,-0.146083029,0,0,0,58,-25,19,383,521,202,2
128500592,16062,-815,-2357,-0.875464527,-0.483282383,0.121869343,-0.989272333,-0.146083029,0,0,0,57,-19,18,395,537,221,2
128520592,16061,-859,-2369,-0.875464527,-0.483282383,0.121869343,-0.989272333,-0.146083029,0,0,0,53,-21,19,393,537,213,2
128540592,16052,-788,-2333,-0.875464527,-0.483282383,0.121869343,-0.989272333,-0.146083029,0,0,0,54,-22,12,407,533,203,2
128560592,16111,-762,-2403,-0.875464527,-0.483282383,0.120136839,-0.989272333,-0.146083029,0,0,0,62,-13,8,379,543,223,2
128580592,16021,-820,-2394,-0.875464527,-0.483282383,0.120136839,-0.989272333,-0.146083029,0,0,0,72,-23,9,399,525,219,2
128600592,16101,-862,-2260,-0.875464527,-0.483282383,0.118403968,-0.989272333,-0.146083029,0,0,0,69,-20,12,389,549,212,2
128620592,16075,-837,-2357,-0.875464527,-0.483282383,0.118403968,-0.989272333,-0.146083029,0,0,0,61,-21,12,405,541,228,2
128640592,16057,-759,-2381,-0.875464527,-0.483282383,0.118403968,-0.989272333,-0.146083029,0,0,0,59,-23,14,385,537,225,2
128660592,16087,-924,-2484,-0.875464527,-0.483282383,0.116670737,-0.989272333,-0.146083029,0,0,0,71,-13,15,389,537,236,2
128680592,16068,-820,-2404,-0.875464527,-0.483282383,0.116670737,-0.989272333,-0.146083029,0,0,0,59,-17,12,385,535,211,2
128700596,16033,-818,-2353,-0.875464527,-0.483282383,0.116670737,-0.989272333,-0.146083029,0,0,0,63,-26,9,383,535,197,2
128720596,16070,-838,-2421,-0.875464527,-0.483282383,0.11493715,-0.989272333,-0.146083029,0,0,0,59,-23,10,383,539,203,2
128740596,16058,-812,-2355,-0.875464527,-0.483282383,0.11493715,-0.989272333,-0.146083029,0,0,0,59,-17,13,407,527,213,2
128760596,16118,-789,-2332,-0.875464527,-0.483282383,0.11493715,-0.989272333,-0.146083029,0,0,0,64,-22,11,381,541,232,2
128780596,16048,-847,-2260,-0.875464527,-0.483282383,0.113203214,-0.989272333,-0.146083029,0,0,0,70,-17,11,395,529,209,2
128800596,16133,-847,-2305,-0.875464527,-0.483282383,0.113203214,-0.989272333,-0.146083029,0,0,0,66,-9,6,379,535,208,2
128820596,16094,-889,-2294,-0.875464527,-0.483282383,0.113203214,-0.989272333,-0.146083029,0,0,0,59,-17,7,381,553,229,2
128840596,16043,-888,-2437,-0.875464527,-0.483282383,0.111468932,-0.989272333,-0.146083029,0,0,0,69,-21,13,363,517,221,2
128860596,16051,-921,-2423,-0.875464527,-0.483282383,0.111468932,-0.989272333,-0.146083029,0,0,0,55,-23,16,385,525,219,2
128880596,16061,-934,-2391,-0.875464527,-0.483282383,0.111468932,-0.989272333,-0.146083029,0,0,0,55,-23,12,399,553,222,2
128900596,16070,-872,-2353,-0.875464527,-0.483282383,0.109734311,-0.989272333,-0.146083029,0,0,0,51,-11,10,393,521,194,2
128920596,16106,-818,-2451,-0.875464527,-0.483282383,0.109734311,-0.989272333,-0.146083029,0,0,0,49,-24,13,393,541,218,2
128940596,16083,-832,-2373,-0.875464527,-0.483282383,0.109734311,-0.989272333,-0.146083029,0,0,0,59,-22,13,389,539,209,2
128960596,16031,-864,-2356,-0.875464527,-0.483282383,0.107999356,-0.989272333,-0.146083029,0,0,0,58,-18,5,371,539,201,2
128980596,16107,-859,-2224,-0.875464527,-0.483282383,0.107999356,-0.989272333,-0.146083029,0,0,0,55,-18,13,387,543,203,2
129000596,16120,-837,-2352,-0.875464527,-0.483282383,0.107999356,-0.989272333,-0.146083029,0,0,0,51,-19,11,397,531,218,2
129020596,16052,-824,-2396,-0.875464527,-0.483282383,0.106264071,-0.989272333,-0.146083029,0,0,0,38,-32,20,391,537,211,2
129040596,16252,-794,-2280,-0.875464527,-0.483282383,0.106264071,-0.989272333,-0.146083029,0,0,0,33,-27,17,389,553,193,2
129060596,16014,-753,-2269,-0.875464527,-0.483282383,0.106264071,-0.989272333,-0.146083029,0,0,0,41,-9,12,395,539,216,2
129080600,16268,-785,-2333,-0.875464527,-0.483282383,0.106264071,-0.989272333,-0.146083029,0,0,0,32,-14,8,393,549,197,2
129100600,16041,-774,-2364,-0.875464527,-0.483282383,0.104528463,-0.989272333,-0.146083029,0,0,0,33,-15,14,371,537,212,2
129120600,16044,-664,-2407,-0.875464527,-0.483282383,0.104528463,-0.989272333,-0.146083029,0,0,0,34,2,7,383,529,205,2
129140600,16333,-554,-2390,-0.875464527,-0.483282383,0.102792537,-0.989272333,-0.146083029,0,0,0,41,-13,5,379,557,230,2
129160600,16255,-458,-2309,-0.875464527,-0.483282383,0.102792537,-0.989272333,-0.146083029,0,0,0,13,-17,0,381,531,209,2
129180600,16138,-373,-2132,-0.875464527,-0.483282383,0.102792537,-0.989272333,-0.146083029,0,0,0,10,-8,6,401,549,216,2
129200600,16282,-310,-2099,-0.875464527,-0.483282383,0.101056297,-0.989272333,-0.146083029,0,0,0,5,-12,1,385,543,235,2
129220600,16273,-358,-1674,-0.875464527,-0.483282383,0.101056297,-0.989525789,-0.144356201,0,0,0,-14,-36,-7,377,525,225,2
129240600,16081,-256,-1578,-0.875464527,-0.483282383,0.09931975,-0.989525789,-0.144356201,0,0,0,-16,-22,-13,377,549,226,2
129260600,16328,68,-1224,-0.875464527,-0.483282383,0.09931975,-0.989776231,-0.142628934,524,3460,2260,15,-27,-25,387,551,216,2
129280600,16160,-552,-1241,-0.875464527,-0.483282383,0.09931975,-0.989776231,-0.142628934,186,2218,2196,54,-27,-41,387,539,221,2
129300600,16153,-992,-1085,-0.875464527,-0.483282383,0.101056297,-0.990023658,-0.140901232,170,1350,2462,17,-42,-36,377,537,194,2
129320600,15947,-1184,-1094,-0.87630668,-0.481753674,0.101056297,-0.990023658,-0.140901232,-246,990,2426,-49,-1,-33,375,517,229,2
129340600,15874,-897,-1405,-0.877146164,-0.480223497,0.102792537,-0.990023658,-0.140901232,-388,1594,1808,-72,29,-33,393,551,210,2
129360600,15865,-1330,-1611,-0.878817113,-0.47715876,0.102792537,-0.990023658,-0.140901232,-400,754,1408,-82,35,-30,379,545,197,2
129380600,15850,-1583,-2118,-0.880477354,-0.474088209,0.104528463,-0.989776231,-0.142628934,-424,280,418,-114,47,-27,387,527,208,2
129400600,15781,-1522,-2289,-0.882126866,-0.471011881,0.106264071,-0.989525789,-0.144356201,-550,452,124,-145,69,-36,377,539,212,2
129420600,15917,-1058,-2733,-0.884580975,-0.46638664,0.106264071,-0.989272333,-0.146083029,-262,1426,-690,-175,101,-31,383,547,228,2
129440600,15900,-671,-2983,-0.887010833,-0.461748613,0.106264071,-0.988493887,-0.15126082,-274,2246,-1078,-180,139,-41,389,537,217,2
129460600,15768,-940,-3088,-0.887815385,-0.460199785,0.107999356,-0.987959866,-0.154710386,-514,1714,-1126,-108,162,-65,377,551,217,2
129480604,15971,-1456,-3406,-0.889416373,-0.457097927,0.109734311,-0.987136265,-0.159881188,-72,748,-1610,-82,179,-83,383,535,226,2
129500604,15841,-1470,-3495,-0.890212805,-0.455544907,0.113203214,-0.986285602,-0.165047606,-296,800,-1628,-108,182,-85,369,539,224,2
129520604,15907,-1321,-3263,-0.89179753,-0.452434709,0.11493715,-0.985407898,-0.170209499,-124,1182,-992,-119,202,-86,379,539,234,2
129540604,15927,-1201,-3097,-0.893371388,-0.449318999,0.118403968,-0.98450318,-0.175366726,-46,1500,-492,-108,204,-88,369,537,225,2
129560604,16093,-1050,-2840,-0.894934362,-0.446197813,0.120136839,-0.983885038,-0.178802215,322,1882,162,-141,178,-87,353,555,222,2
129580604,15960,-1018,-2354,-0.89648643,-0.443071191,0.123601477,-0.983254908,-0.182235525,94,2038,1258,-153,167,-100,379,555,249,2
129600604,16073,-969,-2072,-0.898027576,-0.43993917,0.123601477,-0.982612797,-0.185666615,352,2230,1938,-148,169,-106,381,543,236,2
129620604,16150,-1009,-2019,-0.900318771,-0.435231099,0.125333234,-0.982287251,-0.187381315,524,2204,2100,-174,156,-108,359,547,216,2
129640604,15804,-1660,-2163,-0.902585284,-0.430511097,0.128795597,-0.981627183,-0.190808995,-146,956,1870,-177,166,-114,365,561,236,2
129660604,15776,-1831,-2515,-0.90408255,-0.427357863,0.13225639,-0.980955155,-0.194234351,-164,732,1286,-193,190,-115,367,545,230,2
129680604,15668,-1881,-2911,-0.906307787,-0.422618262,0.137444546,-0.979924705,-0.199367934,-332,752,652,-151,226,-122,379,559,239,2
129700604,15690,-2759,-3160,-0.907044014,-0.421035813,0.140901232,-0.978867389,-0.204496052,-234,-884,318,-134,229,-126,375,547,225,2
129720604,15634,-2949,-3397,-0.909236109,-0.416280792,0.144356201,-0.977415894,-0.211324796,-286,-1134,30,-168,258,-111,379,561,233,2
129740604,15493,-2943,-3404,-0.910683661,-0.41310443,0.147809411,-0.976296007,-0.216439614,-504,-996,228,-142,283,-105,377,555,244,2
129760604,15391,-3603,-3416,-0.912120116,-0.409923034,0.152985836,-0.974761194,-0.223250116,-642,-2204,418,-133,287,-93,365,559,255,2
129780604,15478,-3167,-3172,-0.913545458,-0.406736643,0.156434465,-0.973178873,-0.230049737,-392,-1166,1114,-176,300,-76,365,567,251,2
129800604,15788,-2519,-2890,-0.915662593,-0.401947777,0.159881188,-0.97154912,-0.236838146,302,226,1904,-179,328,-55,371,541,250,2
129820604,15511,-1857,-3304,-0.917060074,-0.398749069,0.161603821,-0.96944535,-0.245307386,-178,1626,1326,-127,353,-61,373,577,243,2
129840604,15392,-900,-3108,-0.917060074,-0.398749069,0.159881188,-0.96770917,-0.252069358,-332,3594,1984,-23,358,-77,373,553,276,2
129860608,15553,-757,-3054,-0.915662593,-0.401947777,0.159881188,-0.965472631,-0.260504509,50,3844,2346,162,354,-118,379,577,261,2
129880608,15439,-1307,-3193,-0.912834177,-0.40833046,0.158158067,-0.963162567,-0.268919821,-112,2698,2336,332,363,-168,369,559,293,2
129900608,15456,-1270,-3164,-0.907777479,-0.419452082,0.158158067,-0.960779154,-0.277314653,0,2752,2682,435,369,-187,369,563,288,2
129920608,15496,-1612,-3059,-0.902585284,-0.430511097,0.158158067,-0.958322574,-0.285688367,162,2040,3182,535,374,-213,357,555,304,2
129940608,15057,-2743,-3780,-0.89571176,-0.444635179,0.159881188,-0.9547608,-0.297374874,-626,-248,2048,587,406,-212,365,559,317,2
129960608,14917,-3397,-4384,-0.889416373,-0.457097927,0.161603821,-0.951056516,-0.309016994,-766,-1510,1242,532,456,-215,343,567,315,2
129980608,14991,-3187,-4680,-0.884580975,-0.46638664,0.163325962,-0.946085359,-0.323917418,-454,-1028,1108,434,531,-193,337,573,317,2
130000608,14988,-2926,-4493,-0.879648573,-0.475624209,0.163325962,-0.940880769,-0.33873792,-274,-468,1980,405,598,-168,351,559,322,2
130020608,15115,-2904,-4862,-0.874619707,-0.48480962,0.165047606,-0.934204474,-0.356737999,194,-396,1806,411,690,-174,345,557,345,2
130040608,15132,-2276,-4348,-0.86949493,-0.493941867,0.165047606,-0.927836254,-0.372987783,468,894,3412,418,724,-192,343,579,345,2
130060608,15713,-2177,-3661,-0.863395551,-0.504527624,0.163325962,-0.922538089,-0.385906042,1830,1078,5270,494,683,-206,347,567,366,2
130080608,15633,-2156,-4082,-0.856267085,-0.516533329,0.163325962,-0.91636273,-0.400349033,1870,1082,4910,581,744,-226,339,559,367,2
130100608,15931,-2117,-4507,-0.847121921,-0.53139858,0.161603821,-0.909236109,-0.416280792,2686,1122,4552,658,739,-275,331,553,400,2
130120608,16783,-2497,-4703,-0.837718717,-0.546101961,0.159881188,-0.903335293,-0.428935133,4590,310,4602,712,661,-300,337,553,398,2
130140608,17072,-2218,-4648,-0.829037573,-0.559192903,0.158158067,-0.898027576,-0.43993917,5340,794,5082,681,596,-242,329,571,433,2
130160608,17168,-1587,-4334,-0.819152044,-0.573576436,0.152985836,-0.894154237,-0.447759088,5654,1940,5986,699,485,-218,323,557,451,2
130180608,17957,-1064,-3291,-0.81004164,-0.586372357,0.147809411,-0.893371388,-0.449318999,7268,2800,8198,724,305,-181,307,551,446,2
130200608,18570,-31,-1587,-0.800731371,-0.599023599,0.137444546,-0.89571176,-0.444635179,8400,4598,11518,752,77,-109,305,559,459,2
130220608,19286,1031,85,-0.790155012,-0.612907054,0.125333234,-0.902585284,-0.430511097,9604,6368,14518,798,-169,-60,313,547,506,2
130240612,20127,1693,4243,-0.783693457,-0.62114778,0.113203214,-0.914959668,-0.403545296,10880,7266,22122,674,-567,56,309,551,485,2
130260612,22662,-3402,7241,-0.770513243,-0.63742399,0.104528463,-0.930417568,-0.366501227,15386,-3430,27008,1036,-954,26,319,541,497,2
130280612,26515,1631,9465,-0.771624583,-0.63607822,0.09063258,-0.949425478,-0.313992456,22406,6398,29770,143,-1508,354,331,517,520,2
130300612,20615,4084,10755,-0.771624583,-0.63607822,0.074978727,-0.963162567,-0.268919821,10108,10848,30950,214,-1102,371,345,517,518,2
130320612,22740,2740,8082,-0.758134336,-0.652098404,0.040131793,-0.976296007,-0.216439614,13754,6980,23782,1129,-1634,942,357,521,485,2
130340612,24063,-11799,5093,-0.741975841,-0.670426619,0.029666244,-0.988228381,-0.152985836,15892,-23004,15550,1237,-2274,724,393,505,457,2
130360612,30794,-18540,-6521,-0.730162277,-0.683273774,0.036643709,-0.992546152,-0.121869343,29182,29224,-9066,708,-1344,192,417,487,442,2
130380612,26947,-14285,-12831,-0.730162277,-0.683273774,0.047106451,-0.994702817,-0.102792537,21408,-27384,-22566,64,-1193,58,447,461,448,2
130400612,23382,-5106,-9523,-0.740804596,-0.671720589,0.054078813,-0.998629535,-0.052335956,14148,-8564,-17626,-634,-2463,-42,453,483,410,2
130420612,21894,-7522,-6178,-0.753563392,-0.657375246,0.06104854,-0.999876632,0.015707317,11128,-13260,-13084,-807,-3050,27,481,473,353,2
130440612,25240,-9041,-5239,-0.766044443,-0.64278761,0.073238197,-0.995396198,0.095845753,17986,-15906,-13798,-759,-3536,-212,493,489,337,2
130460612,19680,-3457,-6481,-0.783693457,-0.62114778,0.071497444,-0.986572162,0.163325962,7208,-4618,-18654,-1150,-3232,15,499,497,271,2
130480612,18462,681,-7006,-0.801775644,-0.597625147,0.068015291,-0.977045574,0.213030386,5138,3728,-21438,-1175,-2659,-201,487,485,188,2
130500612,16974,-751,-7693,-0.814115518,-0.580702956,0.06279052,-0.968583161,0.248689887,2466,602,-24046,-888,-2177,-2,481,483,166,2
130520612,12657,-1623,-8369,-0.824126189,-0.566406237,0.06104854,-0.96174131,0.273959219,-5908,-1286,-26326,-801,-1909,-50,465,485,116,2
130540612,9630,-3172,-9398,-0.834847863,-0.55048074,0.06104854,-0.957319498,0.289031797,-11772,-4522,-29004,-836,-1674,1,457,487,90,2
130560612,7055,-3557,-10381,-0.846193166,-0.532876276,0.059306374,-0.956304756,0.292371705,-16874,-5378,-31112,-934,-1161,61,433,479,31,2
130580612,5788,-2458,-11331,-0.860742027,-0.509041416,0.054078813,-0.959805292,0.280666709,-19518,-3286,-32686,-1257,-611,58,421,465,-17,2
130600612,4786,-732,-11150,-0.875464527,-0.483282383,0.045362988,-0.965925826,0.258819045,-21738,22,-31628,-1254,-188,37,423,467,19,2
130620616,4089,-144,-10545,-0.885393626,-0.464842046,0.036643709,-0.971961001,0.235142113,-23356,944,-29654,-931,-159,140,413,453,-24,2
130640616,5565,483,-8276,-0.89571176,-0.444635179,0.026176948,-0.976672278,0.214735327,-20594,1926,-24406,-956,-247,120,403,451,-50,2
130660616,9351,1524,-4523,-0.902585284,-0.430511097,0.01396218,-0.978147601,0.207911691,-13154,3712,-16386,-710,-454,148,397,429,-52,2
130680616,12483,252,1062,-0.908508178,-0.417867074,0.001745328,-0.973975967,0.226651307,-6860,592,-5382,-635,-952,395,407,411,-76,2
130700616,15229,67,6799,-0.914253955,-0.405141587,-0.00698126,-0.965472631,0.260504509,-1164,-108,5290,-578,-1206,245,383,403,-96,2
130720616,19038,-163,5518,-0.919135339,-0.39394191,-0.008726535,-0.965472631,0.260504509,6506,-622,2560,-506,-28,-63,359,387,-141,2
130740616,19242,5112,16324,-0.922538089,-0.385906042,-0.008726535,-0.96770917,0.252069358,6740,10100,24852,-250,854,-281,387,387,-110,2
130760616,18738,7378,11951,-0.928485827,-0.371367836,-0.010471784,-0.972775878,0.231747903,5600,14690,16636,-501,1172,-437,391,393,-118,2
130780616,19577,9614,13031,-0.931691228,-0.36325123,-0.017452406,-0.973975967,0.226651307,7236,18976,19020,-319,656,-224,373,389,-106,2
130800616,21872,7329,11232,-0.931691228,-0.36325123,-0.02094242,-0.97236992,0.233445364,11912,14200,15066,70,-68,-182,375,389,-108,2
130820616,-800,6853,3176,-0.942641491,-0.333806859,-0.04884977,-0.970716482,0.240228042,32104,12930,-1062,-1211,204,-215,345,381,-145,2
130840616,28780,-6520,4790,-0.939094252,-0.343659695,-0.029666244,-0.968583161,0.248689887,25926,-14274,1428,547,-420,-402,351,381,-122,2
130860616,32764,4579,-4364,-0.941470545,-0.337095258,-0.034899497,-0.978147601,0.207911691,-31904,8082,-15806,-281,1244,43,333,385,-99,2
130880616,4933,5233,3478,-0.944948912,-0.327217899,-0.041875654,-0.987136265,0.159881188,-22474,9676,2126,-312,2373,-546,337,381,-97,2
130900616,8715,370,-12099,-0.940880769,-0.33873792,-0.017452406,-0.995561965,0.094108313,-15026,132,-28060,684,1635,-904,355,391,-63,2
130920616,12861,-10049,-8338,-0.932323801,-0.36162457,0.010471784,-0.997440783,0.071497444,-6848,-20280,-19440,1035,334,-460,355,417,-61,2
130940616,21175,-7679,-5703,-0.924546034,-0.381070376,0.031410759,-0.998719357,0.05059294,9740,-14596,-13340,903,404,-461,335,415,-9,2
130960616,14397,-8745,-2581,-0.914959668,-0.403545296,0.054078813,-0.99970149,0.024432178,-3842,-16166,-6114,989,809,-294,315,411,-29,2
130980616,16385,-8594,-3751,-0.912834177,-0.40833046,0.073238197,-0.99992537,-0.012217001,168,-15170,-7268,265,1243,-291,327,431,-7,2
131000620,15434,-4660,-3386,-0.914253955,-0.405141587,0.085416923,-0.998719357,-0.05059294,-1656,-6696,-5230,-155,1392,-266,323,429,-21,2
131020620,15729,-2284,-2812,-0.917754626,-0.397147891,0.094108313,-0.996041065,-0.088894297,-940,-1524,-2794,-349,1438,-250,319,419,38,2
131040620,15573,-744,-2089,-0.918446381,-0.395545503,0.101056297,-0.992331938,-0.123601477,-1080,1896,-112,-57,1439,-360,337,429,34,2
131060620,15764,-492,-1948,-0.913545458,-0.406736643,0.107999356,-0.987688341,-0.156434465,-510,2658,1238,422,1284,-406,331,437,38,2
131080620,15463,-43,-595,-0.907777479,-0.419452082,0.111468932,-0.982935349,-0.183951351,-916,3712,4942,577,1229,-390,329,459,64,2
131100620,15267,-1181,108,-0.898027576,-0.43993917,0.116670737,-0.977783237,-0.209618563,-1110,1520,7248,903,1204,-424,315,455,51,2
131120620,14681,-2900,-34,-0.886203579,-0.463296035,0.121869343,-0.97154912,-0.236838146,-2060,-1834,7858,1016,1270,-386,343,447,97,2
131140620,14898,-3269,-187,-0.877146164,-0.480223497,0.127064609,-0.964095404,-0.265556117,-1352,-2408,8480,767,1378,-312,339,471,118,2
131160620,15952,-2084,-781,-0.872069272,-0.489382452,0.130526192,-0.955793015,-0.294040325,1068,158,8224,484,1453,-278,333,475,110,2
131180620,16134,-537,-562,-0.866025404,-0.5,0.130526192,-0.946085359,-0.323917418,1772,3342,9632,454,1506,-255,337,473,125,2
131200620,16669,-1044,131,-0.858064906,-0.513541252,0.13225639,-0.936672189,-0.350207381,3196,2324,11968,670,1515,-348,307,485,137,2
131220620,17680,-1074,-12,-0.847121921,-0.53139858,0.13225639,-0.927183855,-0.374606593,5534,2252,12462,819,1361,-382,317,497,178,2
131240620,17608,526,-502,-0.835807361,-0.549022818,0.127064609,-0.917754626,-0.397147891,5690,5378,12198,875,1296,-343,297,499,196,2
131260620,17226,1413,-314,-0.821149209,-0.570713568,0.116670737,-0.908508178,-0.417867074,5220,6854,13298,1121,1276,-292,305,495,195,2
131280620,19199,1113,-758,-0.803856861,-0.594822787,0.104528463,-0.900318771,-0.435231099,9400,5854,12996,1240,1128,-290,281,499,207,2
131300620,20431,-1824,-924,-0.786935022,-0.617035875,0.0975829,-0.89571176,-0.444635179,11974,-436,12960,1198,756,-219,277,501,221,2
131320620,21216,1001,2650,-0.778243149,-0.627963058,0.085416923,-0.901832526,-0.432085749,13388,4946,19836,727,41,21,271,521,256,2
131340620,21466,5068,7798,-0.777145961,-0.629320391,0.068015291,-0.917060074,-0.398749069,13396,12666,29196,323,-674,274,247,521,247,2
131360620,23042,4750,19706,-0.779337965,-0.626603811,0.05059294,-0.940880769,-0.33873792,15742,11340,-14254,143,-1563,532,241,513,244,2
131380620,27009,-1546,14366,-0.774944489,-0.632029303,0.034899497,-0.959805292,-0.280666709,22924,-1970,-26928,567,-1613,525,213,491,245,2
131400624,29198,6739,8531,-0.763796029,-0.645457688,0,-0.96770917,-0.252069358,26938,13748,25778,998,-672,853,185,499,261,2
131420624,21431,-8491,3163,-0.728968627,-0.684547106,-0.017452406,-0.977415894,-0.211324796,11016,-17948,13600,2384,-1252,721,169,485,272,2
131440624,23694,-22761,-9677,-0.671720589,-0.740804596,-0.019197442,-0.982287251,-0.187381315,15266,18690,-13308,3384,-1107,243,161,485,280,2
131460624,31665,-22393,-16013,-0.654740814,-0.755853469,-0.00698126,-0.988756381,-0.149535343,31012,19938,-27342,938,-1826,40,135,479,321,2
131480624,28332,-8948,-9624,-0.68199836,-0.731353702,0,-0.9952274,-0.0975829,24112,-18170,-16220,-1410,-2444,172,127,483,326,2
131500624,25322,-8364,-10028,-0.716910608,-0.697165103,0.012217001,-0.999262916,-0.038387809,17944,-16582,-19006,-1953,-2753,-35,159,483,334,2
131520624,22876,-4001,-9570,-0.744311546,-0.667832555,0.019197442,-0.999847695,0.017452406,13048,-7498,-20044,-1662,-2789,-84,139,489,301,2
131540624,19028,-5180,-10111,-0.766044443,-0.64278761,0.022687334,-0.997684279,0.068015291,5454,-9796,-22888,-1276,-2645,40,137,475,315,2
131560624,15801,-3039,-9712,-0.789084085,-0.6142852,0.022687334,-0.99317065,0.116670737,-828,-5456,-23784,-1547,-2721,37,163,471,297,2
131580624,14504,-530,-10185,-0.811063819,-0.584957675,0.022687334,-0.987688341,0.156434465,-3202,-286,-26088,-1433,-2411,-224,153,461,316,2
131600624,12701,-2571,-11053,-0.829037573,-0.559192903,0.029666244,-0.982935349,0.183951351,-6610,-4298,-28812,-1243,-2054,-302,181,457,290,2
131620624,10162,-2803,-12156,-0.847121921,-0.53139858,0.034899497,-0.979924705,0.199367934,-11556,-4566,-31580,-1289,-1609,-351,175,449,292,2
131640624,6934,-2308,-12654,-0.866896749,-0.49848774,0.041875654,-0.97957525,0.201077921,-17960,-3328,-32746,-1525,-1201,-453,181,455,295,2
131660624,5357,-748,-11955,-0.886203579,-0.463296035,0.040131793,-0.979222811,0.202787295,-21100,-192,-31398,-1615,-1130,-199,199,459,278,2
131680624,5532,1766,-10996,-0.904827052,-0.425779292,0.029666244,-0.980271175,0.19765734,-20796,4670,-29296,-1716,-867,-102,199,457,264,2
131700624,5182,1176,-9582,-0.917060074,-0.398749069,0.017452406,-0.981627183,0.190808995,-21556,3056,-26234,-1263,-813,105,213,449,263,2
131720624,6183,1651,-7486,-0.925209718,-0.37945616,0.008726535,-0.98450318,0.175366726,-19666,3806,-21506,-863,-442,-56,207,441,275,2
131740624,10031,1087,-2993,-0.928485827,-0.371367836,0.008726535,-0.983254908,0.182235525,-12002,2586,-12366,-296,-843,-152,219,427,252,2
131760624,15323,-2240,1177,-0.932323801,-0.36162457,0.01396218,-0.977783237,0.209618563,-1308,-4116,-4570,-381,-1244,-155,209,415,277,2
131780628,17968,-6651,1815,-0.939692621,-0.342020143,0.019197442,-0.973578903,0.22835087,4126,-12964,-3904,-841,-927,8,213,425,268,2
131800628,15239,1853,5988,-0.946085359,-0.323917418,0.017452406,-0.973975967,0.226651307,-1384,4456,4726,-666,220,-271,221,451,268,2
131820628,19099,8369,13367,-0.953190668,-0.302369891,0.00698126,-0.977045574,0.213030386,6182,17316,20156,-867,1026,-135,213,439,268,2
131840628,20922,11970,14218,-0.961261696,-0.275637356,-0.003490651,-0.978508985,0.206204185,9788,24218,22044,-1069,678,-273,235,441,275,2
131860628,20628,12422,15919,-0.96174131,-0.273959219,-0.010471784,-0.975916762,0.218143241,9276,24862,25108,-41,-13,-212,231,425,271,2
131880628,18674,8883,10643,-0.9547608,-0.297374874,-0.010471784,-0.973578903,0.22835087,5462,17776,14080,1089,-154,-282,235,435,286,2
131900628,6039,-2156,7761,-0.9547608,-0.297374874,0.008726535,-0.980614659,0.195946144,-20118,-4210,9802,176,2166,-547,231,419,287,2
131920628,32764,-12866,-10317,-0.949972052,-0.312334919,0.029666244,-0.990268069,0.139173101,-32328,-25060,-25526,721,1804,-338,243,423,280,2
131940628,19842,8427,2108,-0.973178873,-0.230049737,0.008726535,-0.99505557,0.09931975,7098,17562,1062,-3492,1684,-54,253,431,283,2
131960628,5872,10764,-6886,-0.974370065,-0.224951054,0.005235964,-0.999993908,0.003490651,-20958,22466,-14272,-89,3318,-770,267,421,299,2
131980628,5169,-8002,-13155,-0.964557418,-0.26387305,0.031410759,-0.999048222,-0.043619387,-22326,-15402,-25630,1559,889,-525,269,423,327,2
132000628,22942,-13759,-9662,-0.955793015,-0.294040325,0.052335956,-0.998719357,-0.05059294,13274,-26220,-17914,1288,-96,-345,275,431,330,2
132020628,15018,-12078,-4625,-0.946085359,-0.323917418,0.080198924,-0.997440783,-0.071497444,-2484,-22008,-7052,1265,524,-599,261,423,355,2
132040628,15703,-10800,-3857,-0.943800952,-0.330514393,0.104528463,-0.994702817,-0.102792537,-946,-18624,-4420,211,1135,-385,275,435,361,2
132060628,17049,-4654,-4293,-0.946085359,-0.323917418,0.113203214,-0.989272333,-0.146083029,1978,-5700,-3906,-258,1613,-183,257,431,355,2
132080628,14934,-1365,-3071,-0.949972052,-0.312334919,0.121869343,-0.983254908,-0.182235525,-1984,1310,-180,-532,1565,-269,251,423,362,2
132100628,16629,-506,-1927,-0.952661481,-0.304033061,0.128795597,-0.976672278,-0.214735327,1684,3314,3230,-387,1471,-290,263,429,408,2
132120628,15344,-2176,-2229,-0.951056516,-0.309016994,0.137444546,-0.96944535,-0.245307386,-614,168,3624,166,1372,-407,257,441,406,2
132140628,15554,-1357,-2723,-0.948876012,-0.315649037,0.144356201,-0.961261696,-0.275637356,108,2100,3568,256,1291,-437,253,445,429,2
132160632,15356,-847,-1753,-0.94437637,-0.328866647,0.147809411,-0.953190668,-0.302369891,34,3294,6456,488,1286,-450,243,453,403,2
132180632,14936,-1908,-1494,-0.936059536,-0.351841648,0.15126082,-0.943222658,-0.332161132,-448,1220,8006,924,1430,-489,227,455,464,2
132200632,14397,-2909,-2174,-0.926528631,-0.376224263,0.156434465,-0.928485827,-0.371367836,-1046,-716,7870,999,1754,-487,233,443,450,2
132220632,16224,-2909,-2449,-0.917060074,-0.398749069,0.158158067,-0.910683661,-0.41310443,3226,-612,8700,943,1991,-478,213,423,480,2
132240632,17461,-1759,248,-0.908508178,-0.417867074,0.158158067,-0.89725837,-0.441505853,6254,1726,15180,879,1700,-443,203,435,497,2
132260632,18179,-318,3038,-0.899557779,-0.436801788,0.152985836,-0.887010833,-0.461748613,8088,4532,21526,843,1492,-372,195,445,523,2
132280632,18124,487,4225,-0.891006524,-0.4539905,0.146083029,-0.879648573,-0.475624209,8232,5930,24410,882,1312,-315,189,423,538,2
132300632,18104,1761,3303,-0.880477354,-0.474088209,0.135715572,-0.868631514,-0.495458668,8498,8168,23194,1027,1528,-317,185,433,554,2
132320632,18972,1430,547,-0.864274802,-0.503019947,0.120136839,-0.857167301,-0.515038075,10488,6974,18236,1468,1345,-371,173,415,578,2
132340632,20479,106,-708,-0.845261833,-0.534352349,0.102792537,-0.848971688,-0.528438335,13696,3690,16168,1587,1075,-293,177,417,570,2
132360632,20535,-2107,1911,-0.831954122,-0.554844427,0.087155743,-0.850811109,-0.525471651,13776,-1372,21444,1308,528,-17,181,391,592,2
132380632,21513,2713,5974,-0.824126189,-0.566406237,0.0662739,-0.863395551,-0.504527624,15314,7780,28964,877,-236,233,181,387,613,2
132400632,22742,7969,12122,-0.831954122,-0.554844427,0.043619387,-0.89648643,-0.443071191,16642,17712,-26118,-135,-1806,686,197,379,590,2
132420632,20164,4649,26143,-0.837718717,-0.546101961,0.026176948,-0.928485827,-0.371367836,10406,10346,-244,-162,-2045,651,219,379,582,2
132440632,30762,2557,9884,-0.830012285,-0.557745109,0,-0.942641491,-0.333806859,30982,5190,31254,946,-876,741,231,363,582,2
132460632,24422,914,8819,-0.807989884,-0.589196357,-0.026176948,-0.956304756,-0.292371705,17824,944,27810,1820,-1001,540,257,357,594,2
132480632,21047,-19345,-7317,-0.760405966,-0.649448048,-0.031410759,-0.966376079,-0.257132793,10534,25126,-6196,3331,-1449,107,277,331,573,2
132500632,29464,-14532,-18640,-0.730162277,-0.683273774,-0.038387809,-0.973975967,-0.226651307,27102,-30790,-30108,1957,-1562,384,303,305,567,2
132520632,30002,-4620,-11135,-0.727772758,-0.685818353,-0.043619387,-0.983571471,-0.180519145,27884,-10870,-16520,294,-2168,346,331,281,563,2
132540636,30435,-8396,-10745,-0.738455341,-0.674302388,-0.033155178,-0.992757342,-0.120136839,28430,-18196,-17704,-636,-2740,52,361,287,547,2
132560636,24748,-2940,-10239,-0.75011107,-0.661311865,-0.027921639,-0.998134798,-0.06104854,16860,-6978,-18758,-665,-2863,31,381,281,513,2
132580636,20111,-3679,-11070,-0.756995056,-0.653420604,-0.02094242,-0.999961923,-0.008726535,7532,-8274,-22238,-381,-2671,-46,401,289,462,2
132600636,14999,-1616,-10502,-0.766044443,-0.64278761,-0.012217001,-0.999328394,0.036643709,-2660,-3762,-22744,-509,-2624,-270,419,293,428,2
132620636,14065,-2618,-10928,-0.777145961,-0.629320391,0,-0.997052752,0.076719028,-4434,-5434,-24954,-647,-2432,-333,443,307,361,2
132640636,12608,-2127,-11798,-0.789084085,-0.6142852,0.01396218,-0.994337944,0.106264071,-7230,-3886,-27726,-704,-2092,-598,463,303,328,2
132660636,8915,-4950,-12770,-0.803856861,-0.594822787,0.034899497,-0.992114701,0.125333234,-14504,-8998,-30388,-928,-1788,-644,479,325,296,2
132680636,7500,-3631,-12983,-0.822144041,-0.569279523,0.05059294,-0.9909832,0.133986185,-17258,-5804,-31152,-1248,-1394,-524,473,329,284,2
132700636,5423,-1449,-12871,-0.846193166,-0.532876276,0.054078813,-0.99074784,0.135715572,-21384,-1166,-31036,-1778,-1133,-343,483,323,240,2
132720636,5973,1233,-11190,-0.871213811,-0.490903754,0.04884977,-0.99074784,0.135715572,-20284,4230,-27674,-1994,-1047,-227,477,335,229,2
132740636,5462,1730,-9405,-0.888617233,-0.458649554,0.041875654,-0.991444861,0.130526192,-21338,5034,-23910,-1502,-796,-116,481,321,182,2
132760636,3273,384,-7317,-0.89725837,-0.441505853,0.034899497,-0.992331938,0.123601477,-25756,1980,-19520,-799,-790,133,469,325,191,2
132780636,11702,-994,-2305,-0.907044014,-0.421035813,0.038387809,-0.988756381,0.149535343,-8860,-732,-9760,-859,-1454,-241,487,319,191,2
132800636,15893,-1447,-119,-0.914959668,-0.403545296,0.038387809,-0.982287251,0.187381315,-290,-1676,-6490,-740,-1783,-26,493,315,155,2
132820636,14896,-2001,4461,-0.917060074,-0.398749069,0.047106451,-0.975534544,0.219846204,-2090,-2498,1850,-141,-1264,-326,499,321,131,2
132840636,14591,5712,13752,-0.912834177,-0.40833046,0.045362988,-0.976296007,0.216439614,-2782,13250,20920,547,670,-196,495,315,138,2
132860636,15832,6584,11797,-0.921863152,-0.387515586,0.041875654,-0.978508985,0.206204185,-368,14894,17312,-810,1011,-433,513,329,140,2
132880636,20775,10905,13810,-0.937281989,-0.348572047,0.022687334,-0.978867389,0.204496052,9498,23008,21294,-1655,483,-105,493,321,128,2
132900636,21846,10731,14125,-0.94664926,-0.322265695,0.010471784,-0.975534544,0.219846204,11734,22206,21412,-1084,-205,-181,493,323,128,2
132920640,19760,6922,12435,-0.947210278,-0.320612991,0.001745328,-0.97154912,0.236838146,7688,14236,17462,-42,-338,-55,505,309,111,2
132940640,21705,-1675,17062,-0.949972052,-0.312334919,0.017452406,-0.980614659,0.195946144,11254,-2794,28202,-183,2214,-606,491,311,142,2
132960640,32764,-5005,-7206,-0.940288127,-0.34037955,0.041875654,-0.990509463,0.137444546,-32332,-8714,-19204,1341,1917,-649,485,335,124,2
132980640,18705,4283,4805,-0.954240329,-0.299040792,0.040131793,-0.9952274,0.0975829,4878,10192,6654,-1673,1928,-466,501,325,142,2
133000640,8122,2614,-4827,-0.946085359,-0.323917418,0.054078813,-0.999780683,0.02094242,-16368,7344,-10772,1070,2401,-856,515,347,163,2
133020640,10240,-6492,-16005,-0.939094252,-0.343659695,0.078459096,-0.999450216,-0.033155178,-12114,-10634,-31628,782,1202,-661,511,369,182,2
133040640,20889,-7609,-13553,-0.931055816,-0.364876784,0.080198924,-0.998440764,-0.055821505,9256,-12598,-25454,898,567,-40,525,383,201,2
133060640,17234,-10254,-5004,-0.921863152,-0.387515586,0.094108313,-0.996778878,-0.080198924,2042,-17520,-7472,904,784,-450,509,379,196,2
133080640,15625,-13047,-3717,-0.915662593,-0.401947777,0.107999356,-0.994150964,-0.107999356,-1038,-22686,-3934,625,1025,-435,511,383,206,2
133100640,16210,-10071,-4215,-0.914959668,-0.403545296,0.120136839,-0.989525789,-0.144356201,332,-16300,-3742,-36,1416,-330,513,401,212,2
133120640,15558,-5009,-3607,-0.91636273,-0.400349033,0.130526192,-0.983571471,-0.180519145,-726,-5756,-1388,-219,1404,-334,517,391,234,2
133140640,16652,-448,-1913,-0.917754626,-0.397147891,0.139173101,-0.977783237,-0.209618563,1718,3708,3020,-197,1291,-324,527,401,252,2
133160640,15843,674,-1106,-0.915662593,-0.401947777,0.140901232,-0.97154912,-0.236838146,368,6144,5648,200,1297,-337,525,411,268,2
133180640,15317,-1269,-672,-0.907044014,-0.421035813,0.144356201,-0.964557418,-0.26387305,-448,2270,7400,804,1214,-449,515,411,276,2
133200640,15193,-2152,210,-0.894934362,-0.446197813,0.149535343,-0.957822495,-0.28736052,-428,604,10002,1079,1189,-518,529,415,302,2
133220640,14665,-2132,863,-0.880477354,-0.474088209,0.15126082,-0.949425478,-0.313992456,-1164,730,12268,1227,1415,-505,535,433,331,2
133240640,14831,-2451,1106,-0.866896749,-0.49848774,0.152985836,-0.937888935,-0.346935652,-432,126,13832,1178,1688,-458,491,441,350,2
133260640,16568,-3751,-161,-0.85445883,-0.519519112,0.156434465,-0.925870585,-0.377840787,3440,-2434,12248,956,1632,-396,505,449,382,2
133280640,16218,-3430,777,-0.844327926,-0.535826795,0.158158067,-0.914959668,-0.403545296,3148,-1682,14980,791,1490,-381,499,445,410,2
133300640,16770,-1610,1383,-0.833885822,-0.551936985,0.158158067,-0.904827052,-0.425779292,4642,2052,16972,772,1485,-392,497,453,399,2
133320644,17277,206,1344,-0.823136369,-0.567843745,0.152985836,-0.89571176,-0.444635179,5942,5614,17484,815,1288,-352,473,453,449,2
133340644,17001,194,1842,-0.812083527,-0.583541211,0.146083029,-0.889416373,-0.457097927,5598,5344,18950,898,1127,-305,487,457,458,2
133360644,17617,172,864,-0.795473481,-0.6059884,0.135715572,-0.880477354,-0.474088209,7062,4942,17530,1210,1222,-319,471,457,469,2
133380644,18853,-65,-212,-0.776046407,-0.630675807,0.121869343,-0.871213811,-0.490903754,9762,4024,15902,1406,1155,-320,463,461,508,2
133400644,19982,-821,762,-0.758134336,-0.652098404,0.109734311,-0.867765453,-0.496973961,12120,2016,18122,1295,801,-171,455,465,510,2
133420644,19869,-1051,3255,-0.746638182,-0.665230355,0.095845753,-0.872922077,-0.487859659,11726,1098,22890,909,231,70,455,479,527,2
133440644,21126,3559,6926,-0.74779809,-0.663926213,0.078459096,-0.891006524,-0.4539905,13636,9936,29240,281,-696,373,455,457,506,2
133460644,21331,8591,18391,-0.761538308,-0.648119901,0.064532308,-0.919135339,-0.39394191,13126,19656,-15110,-627,-1552,511,459,443,496,2
133480644,27015,-801,15673,-0.758134336,-0.652098404,0.04884977,-0.939692621,-0.342020143,23692,62,-22288,507,-1352,468,451,467,469,2
133500644,30538,8148,8840,-0.75011107,-0.661311865,0.027921639,-0.945518576,-0.325568154,30442,17506,28834,691,-77,349,459,463,452,2
133520644,23307,-6007,6342,-0.713250449,-0.700909264,0,-0.956813584,-0.290702194,15524,-12236,22722,2542,-886,678,457,457,461,2
133540644,23546,-18082,-11329,-0.656059029,-0.75470958,-0.017452406,-0.960293686,-0.278991106,15680,28180,-13604,3542,-641,511,467,461,467,2
133560644,28899,-15573,-16622,-0.6142852,-0.789084085,-0.027921639,-0.973578903,-0.22835087,25944,-32504,-25980,2363,-2384,339,463,437,467,2
133580644,28857,-11544,-9020,-0.60737584,-0.794414621,-0.019197442,-0.985109326,-0.1719291,25526,-24108,-12488,380,-2452,59,471,439,424,2
133600644,30437,-10721,-11817,-0.623879597,-0.781520472,-0.010471784,-0.993767919,-0.111468932,28368,-22130,-20184,-742,-2825,157,479,463,415,2
133620644,23802,-3931,-10267,-0.645457688,-0.763796029,-0.008726535,-0.998629535,-0.052335956,14932,-8306,-19108,-1130,-2844,185,475,449,376,2
133640644,18706,-3684,-10317,-0.66653247,-0.745476,-0.003490651,-0.999998477,-0.001745328,4706,-7684,-20986,-1087,-2639,65,475,465,351,2
133660644,14973,-1786,-10727,-0.688354576,-0.725374371,0,-0.999262916,0.038387809,-2716,-3674,-23256,-1161,-2387,-84,461,469,288,2
133680644,13496,-2561,-11630,-0.707106781,-0.707106781,0.005235964,-0.99756405,0.069756474,-5586,-5054,-26178,-1035,-2125,-153,461,473,264,2
133700648,10926,-719,-12277,-0.722967146,-0.690882411,0.00698126,-0.995884399,0.09063258,-10644,-1220,-28218,-875,-1767,-98,435,479,217,2
133720648,8533,-2984,-12695,-0.741975841,-0.670426619,0.01396218,-0.99505557,0.09931975,-15384,-5658,-29436,-1117,-1441,-183,453,477,230,2
133740648,5225,-2579,-12231,-0.764921401,-0.64412363,0.022687334,-0.994702817,0.102792537,-21972,-4578,-28680,-1357,-1234,-267,437,479,186,2
133760648,4572,-698,-11057,-0.788010754,-0.615661475,0.017452406,-0.994521895,0.104528463,-23266,-836,-26392,-1515,-1171,72,437,471,182,2
133780648,4316,1204,-10332,-0.807989884,-0.589196357,0.005235964,-0.994880709,0.101056297,-23796,2690,-24824,-1400,-985,252,433,449,147,2
133800648,6169,1388,-7652,-0.821149209,-0.570713568,-0.010471784,-0.99505557,0.09931975,-20106,2550,-19296,-883,-934,405,429,455,162,2
133820648,9809,-126,-3421,-0.833885822,-0.551936985,-0.017452406,-0.99317065,0.116670737,-12800,-880,-11036,-915,-1275,239,421,461,181,2
133840648,14042,1000,79,-0.842452397,-0.538770785,-0.034899497,-0.988493887,0.15126082,-4210,870,-4856,-718,-1595,565,407,445,126,2
133860648,16191,-3731,2459,-0.849892693,-0.526955795,-0.029666244,-0.980614659,0.195946144,334,-8696,-1460,-493,-1919,0,407,447,110,2
133880648,13133,3057,13671,-0.848048096,-0.529919264,-0.040131793,-0.975534544,0.219846204,-5716,4908,20712,56,-358,290,379,451,92,2
133900648,14720,9034,10939,-0.858959897,-0.512042865,-0.052335956,-0.977783237,0.209618563,-2578,16744,15430,-779,841,-174,387,459,93,2
133920648,19469,9338,13892,-0.87630668,-0.481753674,-0.071497444,-0.977415894,0.211324796,6964,16570,21296,-1502,289,179,393,439,111,2
133940648,21358,8114,9780,-0.885393626,-0.464842046,-0.081938509,-0.975534544,0.219846204,10878,13750,12594,-763,-222,-66,381,453,112,2
133960648,18001,5515,9423,-0.887010833,-0.461748613,-0.085416923,-0.970716482,0.240228042,4314,8356,11278,-117,-557,-92,393,435,95,2
133980648,4427,5946,-866,-0.900318771,-0.435231099,-0.113203214,-0.982612797,0.185666615,-23116,8864,-7916,-1180,1886,-35,383,441,94,2
134000648,20301,-1093,4865,-0.901077021,-0.433659085,-0.09063258,-0.980614659,0.195946144,8686,-5302,3408,101,-450,-765,407,443,100,2
134020648,31567,11949,-3872,-0.906307787,-0.422618262,-0.09931975,-0.989525789,0.144356201,30956,20884,-12656,-454,1761,-35,385,447,116,2
134040648,10042,6257,1079,-0.89725837,-0.441505853,-0.09931975,-0.996778878,0.080198924,-12404,9638,-350,957,2741,-387,427,465,161,2
134060648,4177,-5247,-8933,-0.877982975,-0.478691858,-0.059306374,-0.99955986,0.029666244,-24204,-12920,-19558,1833,1211,-979,411,455,173,2
134080652,16556,-13503,-11575,-0.862513669,-0.506033764,-0.031410759,-0.999945169,0.010471784,488,-28640,-23916,1307,260,-363,419,481,212,2
134100652,20730,-10131,-5673,-0.85445883,-0.519519112,-0.010471784,-0.999961923,-0.008726535,8802,-21044,-11242,689,509,-356,415,483,240,2
134120652,14593,-9995,-1006,-0.851726934,-0.523985906,0.01396218,-0.999390827,-0.034899497,-3456,-20020,-888,208,969,-406,407,509,235,2
134140652,16210,-6818,-2187,-0.85445883,-0.519519112,0.033155178,-0.997684279,-0.068015291,-158,-12898,-2170,-188,1296,-266,405,511,255,2
134160652,16168,-4328,-2518,-0.856267085,-0.516533329,0.045362988,-0.994702817,-0.102792537,-124,-7318,-1696,-183,1332,-289,415,507,273,2
134180652,16118,-2027,-1821,-0.858959897,-0.512042865,0.055821505,-0.9909832,-0.133986185,-66,-2248,778,-188,1291,-298,401,521,285,2
134200652,15730,-493,-1136,-0.859852272,-0.510542918,0.064532308,-0.986572162,-0.163325962,-666,1174,3156,-89,1284,-342,407,513,284,2
134220652,15540,-1435,-762,-0.85536426,-0.518027009,0.073238197,-0.982287251,-0.187381315,-868,-480,4754,324,1156,-384,391,519,307,2
134240652,15581,-1284,-222,-0.848971688,-0.528438335,0.080198924,-0.977783237,-0.209618563,-602,62,6606,488,1100,-375,403,515,321,2
134260652,15396,-632,59,-0.839619865,-0.54317445,0.083677843,-0.972775878,-0.231747903,-782,1532,7920,649,1133,-354,391,523,359,2
134280652,14815,-1774,982,-0.829037573,-0.559192903,0.087155743,-0.96770917,-0.252069358,-1754,-684,10480,774,1123,-330,377,527,349,2
134300652,16515,-2019,939,-0.824126189,-0.566406237,0.088894297,-0.963162567,-0.268919821,1816,-1158,10964,413,1081,-82,385,543,392,2
134320652,15498,-2226,338,-0.818149717,-0.575005252,0.092370587,-0.956304756,-0.292371705,26,-1430,10528,440,1335,-261,375,533,428,2
134340652,15990,-1570,641,-0.811063819,-0.584957675,0.095845753,-0.947210278,-0.320612991,1338,10,12080,497,1565,-253,381,533,408,2
134360652,15983,-740,1568,-0.802817475,-0.596224875,0.095845753,-0.936059536,-0.351841648,1720,1742,14986,568,1760,-280,363,537,460,2
134380652,17257,-1027,2092,-0.79335334,-0.608761429,0.0975829,-0.926528631,-0.376224263,4630,1194,16904,617,1637,-326,335,553,469,2
134400652,18072,-23,2195,-0.784776371,-0.619779032,0.095845753,-0.917060074,-0.398749069,6582,3224,17816,586,1495,-311,327,555,483,2
134420652,17299,1233,1486,-0.77384021,-0.633380873,0.09063258,-0.907777479,-0.419452082,5340,5620,17066,758,1450,-290,325,553,513,2
134440652,18049,2542,705,-0.759271307,-0.650774217,0.080198924,-0.898027576,-0.43993917,7122,7926,16138,953,1373,-222,313,559,544,2
134460656,19371,1028,8,-0.741975841,-0.670426619,0.069756474,-0.889416373,-0.457097927,10032,4470,15328,1138,1278,-262,303,545,564,2
134480656,20936,-1773,43,-0.727772758,-0.685818353,0.064532308,-0.886203579,-0.463296035,13262,-1444,15604,889,781,-172,297,543,593,2
134500656,20878,1059,4746,-0.722967146,-0.690882411,0.054078813,-0.892585818,-0.450877541,13002,4014,24752,462,176,95,291,525,615,2
134520656,21939,4451,9522,-0.725374371,-0.688354576,0.041875654,-0.910683661,-0.41310443,14530,10484,-32350,54,-799,298,287,537,608,2
134540656,19725,5944,23842,-0.739631095,-0.673012514,0.029666244,-0.937281989,-0.348572047,9214,13086,-5608,-595,-1704,510,295,539,612,2
134560656,27012,497,11534,-0.743144825,-0.669130606,0.019197442,-0.946085359,-0.323917418,23396,1676,-31266,-52,-232,455,315,521,618,2
134580656,26534,11028,9182,-0.736097087,-0.67687597,0,-0.948323655,-0.317304656,22320,22420,29260,570,391,190,319,513,621,2
134600656,22350,-18836,-1866,-0.690882411,-0.722967146,-0.012217001,-0.957822495,-0.28736052,13474,26818,5872,2864,-1034,445,313,497,629,2
134620656,22574,-22848,-12859,-0.634730513,-0.772733573,-0.026176948,-0.966376079,-0.257132793,13552,18290,-17378,3392,-1386,519,319,467,636,2
134640656,26972,-17319,-11896,-0.630675807,-0.776046407,-0.02094242,-0.976672278,-0.214735327,22040,29694,-16910,279,-2023,356,351,449,635,2
134660656,30099,-7976,-8150,-0.657375246,-0.753563392,-0.010471784,-0.985703469,-0.16848938,27990,-16588,-10842,-1323,-2065,202,383,435,640,2
134680656,27370,-5363,-10490,-0.68199836,-0.731353702,-0.00698126,-0.992965508,-0.118403968,22268,-11192,-17276,-1304,-2347,301,393,437,614,2
134700656,22985,-4164,-8999,-0.700909264,-0.713250449,-0.003490651,-0.998026728,-0.06279052,13320,-8658,-16188,-1064,-2682,160,441,443,580,2
134720656,18301,-4758,-9525,-0.720551112,-0.693401828,0,-0.999945169,-0.010471784,3894,-9722,-19084,-1053,-2674,94,471,459,574,2
134740656,15281,-2779,-9813,-0.740804596,-0.671720589,0.003490651,-0.99950656,0.031410759,-2110,-5538,-21158,-1216,-2397,-27,489,473,535,2
134760656,14893,-2219,-10893,-0.759271307,-0.650774217,0.005235964,-0.997801468,0.0662739,-2808,-4324,-24492,-1083,-2135,2,505,461,501,2
134780656,12156,-1928,-12033,-0.776046407,-0.630675807,0.010471784,-0.996041065,0.088894297,-8194,-3592,-27660,-1049,-1871,-135,535,461,459,2
134800656,8296,-2517,-12377,-0.795473481,-0.6059884,0.015707317,-0.994880709,0.101056297,-15850,-4616,-28860,-1230,-1548,-198,543,457,436,2
134820656,5624,-2768,-11821,-0.81613759,-0.577857624,0.019197442,-0.993767919,0.111468932,-21144,-5054,-28140,-1389,-1523,-53,565,467,423,2
134840656,5366,-2168,-12000,-0.836764313,-0.547563223,0.019197442,-0.99317065,0.116670737,-21630,-3820,-28664,-1511,-1286,8,587,475,370,2
134860660,5782,-1053,-11264,-0.856267085,-0.516533329,0.015707317,-0.993372766,0.11493715,-20804,-1626,-27138,-1497,-1040,43,577,475,359,2
134880660,6201,968,-8805,-0.871213811,-0.490903754,0.00698126,-0.993767919,0.111468932,-19988,2302,-22034,-1181,-867,90,597,463,342,2
134900660,9917,428,-3423,-0.881303452,-0.472550765,0.001745328,-0.992114701,0.125333234,-12554,962,-11306,-829,-1099,110,625,457,349,2
134920660,14586,-1898,2226,-0.887815385,-0.460199785,0.00698126,-0.986572162,0.163325962,-3094,-3670,-856,-521,-1612,-153,615,467,299,2
134940660,18512,-1591,772,-0.89725837,-0.441505853,0,-0.978147601,0.207911691,5056,-3322,-5344,-921,-2017,308,615,487,264,2
134960660,12358,2182,7816,-0.90408255,-0.427357863,-0.001745328,-0.97154912,0.236838146,-7122,4398,8220,-527,-857,-228,617,473,258,2
134980660,13278,10287,18146,-0.913545458,-0.406736643,-0.02094242,-0.973178873,0.230049737,-5390,20268,29360,-980,967,26,641,473,237,2
135000660,18151,9189,10244,-0.930417568,-0.366501227,-0.036643709,-0.97154912,0.236838146,4480,17494,13030,-1695,-10,-170,619,467,226,2
135020660,20401,10525,10215,-0.936059536,-0.351841648,-0.04884977,-0.96944535,0.245307386,9084,19772,12626,-638,-170,-114,629,463,238,2
135040660,9202,11193,12277,-0.942057453,-0.33545157,-0.068015291,-0.958322574,0.285688367,-13028,20640,15724,-723,-1139,-69,641,469,218,2
135060660,6024,390,9830,-0.949972052,-0.312334919,-0.052335956,-0.975149354,0.221548498,-19990,-978,13178,-848,3442,-886,649,475,230,2
135080660,30645,-5833,-9248,-0.944948912,-0.327217899,-0.027921639,-0.975916762,0.218143241,29510,-12834,-26062,849,-410,-550,643,483,252,2
135100660,28812,14738,4294,-0.961261696,-0.275637356,-0.043619387,-0.982287251,0.187381315,25496,28428,2516,-2110,1194,-332,661,491,258,2
135120660,11007,1013,-4920,-0.956813584,-0.290702194,-0.017452406,-0.995884399,0.09063258,-10536,1470,-13192,820,3346,-1007,651,497,305,2
135140660,5870,-8217,-15288,-0.948876012,-0.315649037,0.022687334,-0.99950656,0.031410759,-20908,-16100,-32386,1103,1351,-1109,649,505,317,2
135160660,21255,-8337,-12165,-0.941470545,-0.337095258,0.034899497,-0.99992537,0.012217001,9862,-15772,-25150,961,210,-152,647,525,367,2
135180660,18029,-11376,-3958,-0.934825676,-0.355106962,0.055821505,-0.999961923,-0.008726535,3418,-21348,-7786,818,550,-266,643,521,360,2
135200660,15453,-10246,-1607,-0.934204474,-0.356737999,0.081938509,-0.999328394,-0.036643709,-1658,-18266,-2024,63,1093,-440,657,525,380,2
135220660,16645,-6591,-3108,-0.937888935,-0.346935652,0.09931975,-0.997185134,-0.074978727,852,-10174,-3846,-427,1422,-359,641,531,418,2
135240664,16053,-4334,-3398,-0.940288127,-0.34037955,0.113203214,-0.993767919,-0.111468932,-158,-5066,-3238,-351,1393,-377,633,537,412,2
135260664,16726,-1211,-2138,-0.942641491,-0.333806859,0.123601477,-0.990023658,-0.140901232,1386,1654,348,-253,1252,-378,615,559,420,2
135280664,15956,469,-862,-0.942641491,-0.333806859,0.127064609,-0.985703469,-0.16848938,40,5308,3850,-74,1212,-376,619,557,454,2
135300664,15586,890,-662,-0.939094252,-0.343659695,0.130526192,-0.980955155,-0.194234351,-504,6284,5160,424,1224,-441,609,559,477,2
135320664,15380,-252,-32,-0.931691228,-0.36325123,0.133986185,-0.975149354,-0.221548498,-712,4026,7346,813,1237,-439,609,569,493,2
135340664,14340,-998,27,-0.920504853,-0.390731128,0.133986185,-0.966823389,-0.255445758,-2518,2506,8576,1209,1513,-405,573,557,528,2
135360664,14091,-2681,748,-0.908508178,-0.417867074,0.137444546,-0.957319498,-0.289031797,-2668,-908,11228,1219,1703,-358,579,575,574,2
135380664,18520,-1567,346,-0.901832526,-0.432085749,0.133986185,-0.949425478,-0.313992456,6472,1356,11204,665,1360,-182,553,581,593,2
135400664,16329,-1894,2014,-0.898027576,-0.43993917,0.139173101,-0.942057453,-0.33545157,2384,802,15318,404,1370,-322,543,571,627,2
135420664,16795,-211,2249,-0.894934362,-0.446197813,0.140901232,-0.934204474,-0.356737999,3610,4320,16484,306,1426,-323,527,567,642,2
135440664,17240,363,1788,-0.890212805,-0.455544907,0.139173101,-0.925209718,-0.37945616,4804,5460,16300,430,1504,-298,537,579,631,2
135460664,17634,907,964,-0.882947593,-0.469471563,0.133986185,-0.915662593,-0.401947777,5878,6396,15352,666,1420,-263,499,577,712,2
135480664,17647,1494,527,-0.873772223,-0.48633538,0.125333234,-0.905568799,-0.424199423,6220,7294,15232,847,1454,-233,491,591,693,2
135500664,18373,1913,593,-0.860742027,-0.509041416,0.113203214,-0.894154237,-0.447759088,8008,7760,16138,1103,1458,-281,467,555,751,2
135520664,20011,955,11,-0.848048096,-0.529919264,0.101056297,-0.887010833,-0.461748613,11492,5410,15456,1095,1110,-230,459,573,769,2
135540664,19799,-974,2108,-0.839619865,-0.54317445,0.094108313,-0.887815385,-0.460199785,11050,1182,19672,797,508,-83,425,553,791,2
135560664,20079,2864,7442,-0.836764313,-0.547563223,0.080198924,-0.898794046,-0.438371147,11288,8552,29786,422,-157,184,443,535,789,2
135580664,21160,8910,11826,-0.847121921,-0.53139858,0.06279052,-0.923210217,-0.384295323,12580,20258,-28674,-503,-1451,524,455,523,770,2
135600664,19061,4494,26087,-0.858959897,-0.512042865,0.05059294,-0.948323655,-0.317304656,7544,10800,-2084,-702,-1670,625,475,523,749,2
135620668,32764,789,7611,-0.85445883,-0.519519112,0.043619387,-0.949972052,-0.312334919,-30792,3110,25906,459,363,24,493,521,750,2
135640668,25980,183,6659,-0.837718717,-0.546101961,0.019197442,-0.9547608,-0.297374874,20976,1058,23568,1578,-28,501,495,509,744,2
135660668,22842,-20629,-913,-0.794414621,-0.60737584,0.005235964,-0.964557418,-0.26387305,14206,23832,7042,3291,-1251,462,501,455,745,2
135680668,23199,-23317,-13636,-0.769399555,-0.638767818,0.001745328,-0.97236992,-0.233445364,14594,18348,-19814,1867,-1550,504,507,423,736,2
135700668,28585,-15553,-10776,-0.782608157,-0.622514637,0.010471784,-0.980271175,-0.19765734,25134,-31192,-15202,-795,-1670,402,515,411,703,2
135720668,29822,-11000,-10563,-0.813100761,-0.58212297,0.02094242,-0.988756381,-0.149535343,27308,-21570,-16314,-1981,-2136,266,515,427,687,2
135740668,25161,-5196,-9914,-0.837718717,-0.546101961,0.024432178,-0.994521895,-0.104528463,17798,-9716,-16614,-1746,-2174,298,519,445,623,2
135760668,20879,-6067,-10262,-0.856267085,-0.516533329,0.024432178,-0.998341817,-0.057564027,9098,-11554,-18968,-1376,-2373,433,523,459,614,2
135780668,18273,-4867,-10114,-0.872069272,-0.489382452,0.02094242,-0.999986292,-0.005235964,3838,-9228,-20438,-1188,-2640,411,545,461,561,2
135800668,16632,-5196,-11576,-0.885393626,-0.464842046,0.02094242,-0.999328394,0.036643709,604,-9896,-24854,-1178,-2393,241,529,475,524,2
135820668,14571,-2816,-12156,-0.898794046,-0.438371147,0.022687334,-0.99756405,0.069756474,-3432,-5004,-27176,-1157,-2126,49,563,481,479,2
135840668,12134,-4604,-13302,-0.911403277,-0.411514359,0.029666244,-0.995884399,0.09063258,-8222,-8432,-30272,-1216,-1808,-136,561,499,480,2
135860668,8498,-3847,-13404,-0.925870585,-0.377840787,0.036643709,-0.994150964,0.107999356,-15410,-6652,-31114,-1484,-1687,-216,559,511,459,2
135880668,6818,-3434,-12966,-0.940288127,-0.34037955,0.045362988,-0.992546152,0.121869343,-18692,-5584,-30744,-1628,-1627,-247,569,519,435,2
135900668,5012,-2416,-12927,-0.955793015,-0.294040325,0.045362988,-0.991894443,0.127064609,-22266,-3456,-30886,-1973,-1288,-129,569,537,422,2
135920668,5515,85,-13096,-0.96944535,-0.245307386,0.038387809,-0.991894443,0.127064609,-21264,1456,-31204,-2097,-1035,11,587,555,346,2
135940668,7072,4694,-9275,-0.977415894,-0.211324796,0.015707317,-0.991444861,0.130526192,-18160,10324,-23524,-1469,-1053,216,599,543,347,2
135960668,9479,1655,-4199,-0.980955155,-0.194234351,0.00698126,-0.989015863,0.147809411,-13302,3718,-13688,-678,-1353,101,611,541,337,2
135980668,16881,-5533,-580,-0.983254908,-0.182235525,0.012217001,-0.984195608,0.17708474,1610,-10902,-7120,-450,-1494,29,627,533,291,2
136000672,15881,-5338,1196,-0.985996037,-0.166768747,0.036643709,-0.973578903,0.22835087,-50,-9716,-5154,-492,-2260,-742,609,531,283,2
136020672,14687,-1107,8987,-0.987136265,-0.159881188,0.034899497,-0.963630453,0.267238376,-2186,-1046,9512,-246,-1335,26,607,543,270,2
136040672,18715,11702,14718,-0.990023658,-0.140901232,0.017452406,-0.965925826,0.258819045,5774,24472,21334,-739,809,-36,605,545,238,2
136060672,17585,11930,14150,-0.993372766,-0.11493715,0.008726535,-0.964557418,0.26387305,3540,24632,20064,-975,274,-455,599,537,254,2
136080672,18001,10413,14182,-0.994337944,-0.106264071,0.001745328,-0.959805292,0.280666709,4528,21296,19542,-257,-324,-290,615,545,258,2
136100672,14935,6756,8906,-0.993571856,-0.113203214,0.003490651,-0.953190668,0.302369891,-1368,14036,8172,492,-663,-456,617,551,262,2
136120672,1779,5933,5788,-0.99317065,-0.116670737,-0.010471784,-0.94437637,0.328866647,-27514,12170,1406,162,-438,-139,633,549,248,2
136140672,7839,-13569,4938,-0.994337944,-0.106264071,0.034899497,-0.965925826,0.258819045,-15994,-26726,1644,-88,3137,-1056,641,561,278,2
136160672,32764,-6080,-8747,-0.996778878,-0.080198924,0.047106451,-0.97236992,0.233445364,-31662,-10722,-25544,-955,496,-554,619,599,298,2
136180672,23098,18378,8277,-0.999847695,0.017452406,0.010471784,-0.979222811,0.202787295,14078,-27818,10146,-3971,1566,-91,643,599,313,2
136200672,8356,5504,-3632,-0.999815712,0.019197442,0.017452406,-0.994337944,0.106264071,-15776,12154,-11070,96,3427,-970,635,603,317,2
136220672,7153,-2117,-7520,-1,6.12E-17,0.047106451,-0.998341817,0.057564027,-18248,-2844,-17586,815,1074,-877,651,619,381,2
136240672,19923,-8364,-10254,-0.99950656,-0.031410759,0.057564027,-0.99912283,0.041875654,7248,-15086,-22266,1283,-2,-39,659,629,396,2
136260672,20400,-10333,-4638,-0.998134798,-0.06104854,0.078459096,-0.999847695,0.017452406,8208,-18414,-10020,1208,613,-357,663,627,440,2
136280672,13956,-10763,-1749,-0.997314477,-0.073238197,0.106264071,-0.99992537,-0.012217001,-4614,-18552,-3176,546,1016,-445,659,617,430,2
136300672,16887,-8510,-3598,-0.99756405,-0.069756474,0.125333234,-0.998806137,-0.04884977,1364,-13230,-5694,-197,1369,-372,649,645,480,2
136320672,15592,-3438,-2074,-0.998341817,-0.057564027,0.137444546,-0.996492859,-0.083677843,-1062,-2420,-1462,-457,1356,-398,637,653,518,2
136340672,16424,-940,-1363,-0.99897057,-0.045362988,0.144356201,-0.993767919,-0.111468932,762,2970,944,-523,1250,-341,647,671,520,2
136360672,15934,-133,-1251,-0.99912283,-0.041875654,0.15126082,-0.990023658,-0.140901232,-44,4834,2152,-147,1294,-401,615,673,567,2
136380676,15772,-823,-1416,-0.998806137,-0.04884977,0.156434465,-0.985703469,-0.16848938,-194,3628,2712,247,1158,-433,649,675,555,2
136400676,15565,-917,-838,-0.998341817,-0.057564027,0.163325962,-0.980955155,-0.194234351,-412,3640,4720,342,1116,-446,621,681,571,2
136420676,15384,-1360,-716,-0.997185134,-0.074978727,0.16848938,-0.975149354,-0.221548498,-542,2882,5918,672,1265,-437,587,687,623,2
136440676,14565,-1862,-16,-0.995396198,-0.095845753,0.170209499,-0.967267753,-0.253757945,-1900,1934,8396,859,1445,-380,587,683,641,2
136460676,15373,-2369,35,-0.992965508,-0.118403968,0.1719291,-0.957822495,-0.28736052,44,950,9614,921,1585,-348,571,683,684,2
136480676,16628,-1665,1010,-0.990268069,-0.139173101,0.1719291,-0.948876012,-0.315649037,2896,2398,12568,863,1520,-347,553,693,717,2
136500676,16949,-399,2672,-0.987413807,-0.158158067,0.170209499,-0.940288127,-0.34037955,3874,4940,16790,782,1511,-363,535,673,785,2
136520676,17458,-158,2011,-0.98450318,-0.175366726,0.16848938,-0.931055816,-0.364876784,5186,5366,16226,753,1469,-371,533,681,784,2
136540676,17557,-538,872,-0.981292664,-0.192521967,0.165047606,-0.922538089,-0.385906042,5644,4492,14598,742,1322,-331,495,681,855,2
136560676,17276,571,354,-0.977045574,-0.213030386,0.158158067,-0.912834177,-0.40833046,5368,6530,14272,878,1332,-286,497,677,861,2
136580676,17908,1061,894,-0.97154912,-0.236838146,0.147809411,-0.903335293,-0.428935133,6922,7174,16088,1115,1327,-291,479,685,889,2
136600676,19331,624,1364,-0.964557418,-0.26387305,0.137444546,-0.89725837,-0.441505853,9936,5928,17474,1164,1001,-301,457,669,919,2
136620676,19980,-616,2473,-0.959313975,-0.282341457,0.130526192,-0.898027576,-0.43993917,11184,3134,19662,895,436,-209,457,643,964,2
136640676,20000,3125,6698,-0.957822495,-0.28736052,0.118403968,-0.909236109,-0.416280792,10874,10394,27472,386,-289,28,493,641,985,2
136660676,20444,7340,13680,-0.961261696,-0.275637356,0.101056297,-0.931691228,-0.36325123,10980,18356,-25658,-209,-1314,437,487,633,972,2
136680676,25769,-703,18377,-0.962691746,-0.270600446,0.092370587,-0.952661481,-0.304033061,20846,1678,-18118,34,-1547,343,563,647,964,2
136700676,26685,8849,9685,-0.96770917,-0.252069358,0.083677843,-0.956304756,-0.292371705,22490,20834,29440,-684,275,121,615,653,958,2
136720676,25632,10259,6765,-0.960293686,-0.278991106,0.045362988,-0.958819735,-0.284015345,20170,22418,23282,1446,143,706,653,655,956,2
136740676,22733,-20464,-5249,-0.933580426,-0.35836795,0.029666244,-0.963630453,-0.267238376,13970,24986,-1646,3725,-794,383,715,595,975,2
136760680,22699,-17155,-14513,-0.907044014,-0.421035813,0.015707317,-0.97154912,-0.236838146,13582,31282,-21464,2968,-1645,450,757,535,1017,2
136780680,27699,-13788,-9717,-0.903335293,-0.428935133,0.015707317,-0.981627183,-0.190808995,23322,-27426,-13252,448,-2044,438,865,471,949,2
136800680,30525,-7994,-10769,-0.914959668,-0.403545296,0.02094242,-0.989015863,-0.147809411,28718,-15510,-16858,-1024,-2045,278,889,487,868,2
136820680,25655,-2601,-9727,-0.923210217,-0.384295323,0.017452406,-0.994702817,-0.102792537,18786,-4656,-16322,-865,-2157,299,967,483,825,2
136840680,20631,-5561,-9705,-0.929132572,-0.369746757,0.02094242,-0.99853667,-0.054078813,8608,-10626,-17954,-568,-2407,205,1049,501,696,2
136860680,17139,-3124,-9831,-0.935444031,-0.353474844,0.02094242,-0.999975631,-0.00698126,1582,-5654,-19850,-672,-2487,163,1069,495,624,2
136880680,16085,-3631,-10714,-0.940288127,-0.34037955,0.024432178,-0.99950656,0.031410759,-490,-6570,-22944,-588,-2228,34,1087,487,520,2
136900680,13859,-2219,-11601,-0.944948912,-0.327217899,0.029666244,-0.998134798,0.06104854,-4866,-3544,-25800,-531,-2021,-78,1103,489,452,2
136920680,11169,-3693,-12551,-0.950515732,-0.31067643,0.038387809,-0.996637387,0.081938509,-10166,-6280,-28484,-746,-1781,-201,1111,497,359,2
136940680,9294,-3622,-12030,-0.958322574,-0.285688367,0.047106451,-0.99505557,0.09931975,-13838,-5852,-28064,-1068,-1684,-232,1105,501,270,2
136960680,5692,-4545,-11959,-0.96770917,-0.252069358,0.06104854,-0.993571856,0.113203214,-20962,-7378,-28436,-1371,-1580,-309,1093,497,253,2
136980680,5960,-1732,-11291,-0.976672278,-0.214735327,0.059306374,-0.992546152,0.121869343,-20376,-1588,-27374,-1588,-1327,-42,1105,491,180,2
137000680,7497,-936,-10129,-0.984195608,-0.17708474,0.054078813,-0.991671162,0.128795597,-17282,-120,-25226,-1610,-1246,69,1089,497,101,2
137020680,7299,887,-7080,-0.988228381,-0.152985836,0.041875654,-0.99074784,0.135715572,-17658,3296,-19298,-1064,-1208,193,1069,477,48,2
137040680,9507,-703,-2221,-0.9909832,-0.133986185,0.034899497,-0.986855716,0.161603821,-13180,-242,-10060,-790,-1530,191,1061,449,37,2
137060680,16646,-808,1744,-0.993571856,-0.113203214,0.027921639,-0.978147601,0.207911691,1316,-662,-3326,-882,-1959,145,1063,443,-26,2
137080680,17459,-1284,752,-0.995884399,-0.09063258,0.026176948,-0.969015731,0.246999013,3280,-1724,-6740,-923,-1920,-54,1021,429,-118,2
137100680,12776,5176,8389,-0.997052752,-0.076719028,0.008726535,-0.960779154,0.277314653,-5938,11010,7998,-555,-925,148,999,419,-158,2
137120680,10304,9781,11392,-0.998134798,-0.06104854,-0.005235964,-0.961261696,0.275637356,-10946,19874,14240,-627,647,-150,991,401,-177,2
137140684,19353,11690,12033,-0.99970149,-0.024432178,-0.029666244,-0.960779154,0.277314653,7210,22824,15296,-1504,211,19,995,411,-161,2
137160684,20482,9820,12072,-0.999986292,-0.005235964,-0.04884977,-0.957319498,0.289031797,9614,18348,14960,-814,-273,164,997,381,-186,2
137180684,16615,5015,7560,-0.999945169,-0.010471784,-0.05059294,-0.952129393,0.305695305,2090,8580,5260,292,-618,-145,991,369,-198,2
137200684,2063,7442,5480,-0.999998477,-0.001745328,-0.073238197,-0.944948912,0.327217899,-26878,13170,726,-375,-389,-59,969,379,-228,2
137220684,11212,684,12586,-0.99955986,0.029666244,-0.059306374,-0.931055816,0.364876784,-8138,-640,13694,-1045,-1188,-965,949,373,-241,2
137240684,32764,9394,-2247,-0.998341817,0.057564027,-0.06104854,-0.952661481,0.304033061,-31044,16960,-14682,-957,2164,-568,965,377,-210,2
137260684,11484,5773,2411,-0.998134798,0.06104854,-0.064532308,-0.970295726,0.241921896,-8744,9748,-3026,46,2561,-309,997,395,-132,2
137280684,7546,-3536,-8524,-0.999610115,0.027921639,-0.022687334,-0.98450318,0.175366726,-16952,-8164,-23510,1612,1786,-1015,999,391,-88,2
137300684,15694,-13311,-10604,-1,6.12E-17,0.008726535,-0.988228381,0.152985836,-844,-26888,-26696,1265,271,-452,1005,435,-60,2
137320684,22032,-8628,-6254,-0.999847695,-0.017452406,0.026176948,-0.991444861,0.130526192,11714,-16678,-17126,739,412,-259,1005,459,-29,2
137340684,14932,-6935,-39,-0.99970149,-0.024432178,0.04884977,-0.994702817,0.102792537,-2614,-12596,-3498,376,1017,-426,1019,471,-21,2
137360684,16274,-6974,-1253,-0.99970149,-0.024432178,0.0662739,-0.997684279,0.068015291,12,-12060,-4848,53,1213,-298,989,483,21,2
137380684,15639,-5709,-1355,-0.999815712,-0.019197442,0.081938509,-0.999450216,0.033155178,-1282,-8972,-3850,-227,1330,-299,991,467,27,2
137400684,16221,-3819,-1529,-0.999945169,-0.010471784,0.092370587,-0.999998477,0.001745328,-92,-4694,-3160,-273,1165,-303,999,501,71,2
137420684,15991,-1601,-811,-0.999993908,-0.003490651,0.102792537,-0.999610115,-0.027921639,-494,174,-714,-293,1165,-361,1007,489,72,2
137440684,16007,-900,-748,-0.999986292,-0.005235964,0.113203214,-0.998440764,-0.055821505,-378,1940,328,102,1111,-462,1013,497,99,2
137460684,15648,113,-115,-0.99992537,-0.012217001,0.118403968,-0.996778878,-0.080198924,-1000,4242,2466,293,1051,-386,1025,521,152,2
137480684,15519,515,923,-0.99970149,-0.024432178,0.121869343,-0.994702817,-0.102792537,-1164,5178,5360,460,1041,-363,1007,513,178,2
137500684,14836,-1182,1822,-0.99912283,-0.041875654,0.125333234,-0.992331938,-0.123601477,-2424,1844,7944,774,1076,-352,1017,539,202,2
137520684,14813,-2803,2029,-0.998239828,-0.059306374,0.13225639,-0.989272333,-0.146083029,-2346,-1270,9082,730,1112,-318,1025,549,218,2
137540688,15494,-3016,422,-0.997440783,-0.071497444,0.139173101,-0.984807753,-0.173648178,-816,-1498,6672,515,1282,-260,997,575,270,2
137560688,15890,-1835,-106,-0.996637387,-0.081938509,0.142628934,-0.978508985,-0.206204185,218,1074,6678,420,1521,-277,1001,557,302,2
137580688,15942,-1816,42,-0.995561965,-0.094108313,0.146083029,-0.970295726,-0.241921896,622,1232,8160,468,1684,-293,997,563,337,2
137600688,16779,-1342,1958,-0.994702817,-0.102792537,0.147809411,-0.963162567,-0.268919821,2590,2266,12986,439,1516,-259,985,593,385,2
137620688,17134,-299,4262,-0.993571856,-0.113203214,0.147809411,-0.957319498,-0.289031797,3546,4412,18340,428,1373,-273,979,591,423,2
137640688,17292,982,4117,-0.992114701,-0.125333234,0.146083029,-0.951056516,-0.309016994,4082,6936,18736,612,1425,-284,975,585,444,2
137660688,17268,2045,2626,-0.989015863,-0.147809411,0.137444546,-0.942641491,-0.333806859,4270,8856,16512,949,1478,-279,963,597,484,2
137680688,19152,2069,1122,-0.98450318,-0.175366726,0.127064609,-0.934825676,-0.355106962,8240,8568,14152,1165,1255,-290,945,591,526,2
137700688,20110,-385,712,-0.97957525,-0.201077921,0.121869343,-0.930417568,-0.366501227,10256,3342,13672,1090,797,-292,927,591,561,2
137720688,21013,-54,3254,-0.976672278,-0.214735327,0.11493715,-0.934204474,-0.356737999,11956,3792,18536,672,104,-96,915,591,567,2
137740688,20763,3719,8615,-0.976672278,-0.214735327,0.102792537,-0.946085359,-0.323917418,11078,11066,28374,199,-613,171,917,593,565,2
137760688,19760,4129,19321,-0.978508985,-0.206204185,0.088894297,-0.965472631,-0.260504509,8388,11364,-17570,-103,-1618,422,927,605,555,2
137780688,27247,2497,11116,-0.982612797,-0.185666615,0.087155743,-0.972775878,-0.231747903,23026,8034,30340,-769,-454,57,943,581,505,2
137800688,23100,15047,12104,-0.983885038,-0.178802215,0.068015291,-0.972775878,-0.231747903,14704,-32654,32298,-145,691,170,925,575,493,2
137820688,25484,-7058,6738,-0.97236992,-0.233445364,0.040131793,-0.979924705,-0.199367934,19066,-12992,20472,2523,-907,865,913,567,523,2
137840688,21204,-20361,-7922,-0.94664926,-0.322265695,0.026176948,-0.983571471,-0.180519145,10206,25076,-9944,3968,-1041,597,929,527,532,2
137860688,25041,-16448,-14686,-0.927836254,-0.372987783,0.019197442,-0.989015863,-0.147809411,17708,-32710,-24814,2344,-1827,512,917,499,525,2
137880688,28632,-9652,-7797,-0.930417568,-0.366501227,0.022687334,-0.99505557,-0.09931975,24740,-18822,-12462,-256,-2154,250,949,481,453,2
137900688,30367,-7845,-10577,-0.939094252,-0.343659695,0.026176948,-0.998341817,-0.057564027,28104,-15004,-19482,-958,-1992,178,949,479,447,2
137920692,24896,-3091,-8951,-0.944948912,-0.327217899,0.024432178,-0.999961923,-0.008726535,17108,-5420,-17882,-659,-2382,187,963,497,368,2
137940692,19192,-5363,-9959,-0.949972052,-0.312334919,0.026176948,-0.99912283,0.041875654,5732,-10044,-21674,-656,-2606,199,983,471,289,2
137960692,14997,-816,-9959,-0.956304756,-0.292371705,0.02094242,-0.996345296,0.085416923,-2542,-928,-23244,-874,-2529,179,963,471,251,2
137980692,13919,248,-11019,-0.961261696,-0.275637356,0.019197442,-0.992757342,0.120136839,-4550,1158,-26582,-679,-2262,13,971,469,163,2
138000692,11686,-1385,-11377,-0.965016494,-0.262189179,0.02094242,-0.989776231,0.142628934,-8880,-2116,-28152,-590,-1917,-108,955,467,128,2
138020692,8994,-3335,-11791,-0.96944535,-0.245307386,0.031410759,-0.987413807,0.158158067,-14162,-5792,-29518,-674,-1616,-307,943,455,88,2
138040692,6819,-4495,-11669,-0.974761194,-0.223250116,0.038387809,-0.985109326,0.1719291,-18420,-7982,-29728,-907,-1584,-77,933,463,44,2
138060692,5767,-3608,-11883,-0.981958713,-0.189095443,0.041875654,-0.983885038,0.178802215,-20456,-6046,-30466,-1411,-1415,-106,933,443,7,2
138080692,6112,-1127,-10578,-0.989015863,-0.147809411,0.034899497,-0.982935349,0.183951351,-19742,-1134,-27992,-1777,-1229,18,915,431,-72,2
138100692,6426,-601,-8939,-0.993767919,-0.111468932,0.027921639,-0.983571471,0.180519145,-19138,-318,-24610,-1500,-947,99,897,421,-91,2
138120692,7776,-1079,-5285,-0.996345296,-0.085416923,0.024432178,-0.982935349,0.183951351,-16464,-1442,-17196,-1101,-924,53,903,413,-92,2
138140692,12091,-2430,-667,-0.998026728,-0.06279052,0.022687334,-0.977783237,0.209618563,-7752,-4230,-8370,-937,-1355,35,893,401,-145,2
138160692,18166,-1613,385,-0.999450216,-0.033155178,0.01396218,-0.965016494,0.262189179,4802,-2800,-7974,-1260,-2497,164,859,389,-172,2
138180692,16333,2161,3776,-0.999993908,-0.003490651,-0.008726535,-0.9547608,0.297374874,1438,4122,-2188,-1312,-1567,516,859,371,-221,2
138200692,10623,12154,13250,-0.999876632,0.015707317,-0.029666244,-0.9547608,0.297374874,-10110,23880,17256,-781,551,-92,847,345,-246,2
138220692,13640,12308,14636,-0.998134798,0.06104854,-0.052335956,-0.956813584,0.290702194,-4128,23322,20244,-1859,725,-149,855,349,-212,2
138240692,23034,14551,15932,-0.994702817,0.102792537,-0.080198924,-0.954240329,0.299040792,14854,26816,22380,-1797,-202,121,853,305,-225,2
138260692,18340,11550,11942,-0.994702817,0.102792537,-0.09063258,-0.94664926,0.322265695,5748,20484,13618,-20,-710,-78,851,303,-233,2
138280692,-1372,13325,5886,-0.992965508,0.118403968,-0.123601477,-0.940880769,0.33873792,32038,23450,1132,-654,-321,38,861,309,-255,2
138300696,11737,-3358,8721,-0.994150964,0.107999356,-0.078459096,-0.932323801,0.36162457,-6996,-9636,5920,859,-642,-1221,861,291,-236,2
138320696,32764,9928,-3850,-0.992965508,0.118403968,-0.074978727,-0.950515732,0.31067643,-30904,17560,-18182,-217,1663,-520,859,353,-206,2
138340696,11387,4780,-197,-0.992757342,0.120136839,-0.078459096,-0.968583161,0.248689887,-8782,7282,-8712,112,2282,-277,907,351,-195,2
138360696,8898,-6558,-9419,-0.996492859,0.083677843,-0.033155178,-0.981958713,0.189095443,-14154,-14658,-25688,1783,1663,-921,943,373,-116,2
138380696,14934,-16478,-10435,-0.99897057,0.045362988,0.003490651,-0.985703469,0.16848938,-2280,32054,-26828,1680,269,-402,955,403,-69,2
138400696,20793,-12712,-4785,-0.99912283,0.041875654,0.027921639,-0.988756381,0.149535343,9318,-24964,-14714,245,403,-384,955,435,-89,2
138420696,16344,-6930,-895,-0.998719357,0.05059294,0.047106451,-0.992757342,0.120136839,282,-12632,-5814,-328,1008,-408,951,439,-70,2
138440696,16849,-5667,-1211,-0.997684279,0.068015291,0.06104854,-0.996345296,0.085416923,1194,-9574,-5290,-627,1261,-309,971,447,-43,2
138460696,15960,-3836,-1498,-0.996917334,0.078459096,0.074978727,-0.998806137,0.04884977,-628,-5360,-4702,-399,1280,-395,987,463,-8,2
138480696,16371,-2518,-684,-0.996492859,0.083677843,0.085416923,-0.999780683,0.02094242,198,-2250,-2076,-147,1071,-397,989,453,-1,2
138500696,16067,-2020,-286,-0.996637387,0.081938509,0.0975829,-0.999975631,-0.00698126,-374,-842,-332,62,1088,-432,979,453,43,2
138520696,15497,-2408,-228,-0.997185134,0.074978727,0.109734311,-0.999390827,-0.034899497,-1448,-1210,710,305,1106,-503,1009,473,62,2
138540696,14929,-2222,671,-0.997801468,0.0662739,0.121869343,-0.998239828,-0.059306374,-2492,-458,3424,375,1097,-474,999,503,100,2
138560696,15093,-53,2515,-0.998341817,0.057564027,0.128795597,-0.996778878,-0.080198924,-2054,4244,7898,349,1057,-451,1025,505,108,2
138580696,15815,1429,2155,-0.998806137,0.04884977,0.128795597,-0.994880709,-0.101056297,-524,7308,7864,435,1095,-309,1009,539,157,2
138600696,15735,-512,1277,-0.999262916,0.038387809,0.128795597,-0.991894443,-0.127064609,-600,3332,6886,411,1199,-188,1025,531,186,2
138620696,16168,-2725,527,-0.999390827,0.034899497,0.133986185,-0.988228381,-0.152985836,398,-1042,6202,202,1249,-207,1011,549,222,2
138640696,16162,-1649,2015,-0.999390827,0.034899497,0.140901232,-0.98450318,-0.175366726,574,1370,10042,49,1303,-289,1011,565,239,2
138660696,15832,-897,4012,-0.99950656,0.031410759,0.146083029,-0.980271175,-0.19765734,114,3094,14848,151,1367,-348,1017,563,270,2
138680700,16504,474,4866,-0.99970149,0.024432178,0.147809411,-0.976296007,-0.216439614,1634,5976,17228,296,1336,-337,1015,583,316,2
138700700,16298,1375,5966,-0.999847695,0.017452406,0.146083029,-0.972775878,-0.231747903,1360,7778,19970,408,1218,-286,1013,583,315,2
138720700,17075,1094,4688,-0.999945169,0.010471784,0.144356201,-0.969872015,-0.243615012,2996,7132,17766,347,1070,-228,1021,599,377,2
138740700,17453,3666,4010,-0.999993908,0.003490651,0.137444546,-0.96770917,-0.252069358,3808,12196,16644,336,847,-216,1025,605,408,2
138760700,16450,343,5343,-0.999975631,-0.00698126,0.137444546,-0.96814764,-0.250380004,1778,5354,19320,483,484,-275,1021,623,432,2
138780700,18049,-1303,6109,-0.999902524,-0.01396218,0.135715572,-0.971961001,-0.235142113,4818,1928,20336,358,-71,-88,997,617,438,2
138800700,16523,3416,12055,-0.999998477,0.001745328,0.127064609,-0.977783237,-0.209618563,1602,11282,31628,-481,-59,175,1035,627,433,2
138820700,18870,-7943,13040,-0.999847695,-0.017452406,0.128795597,-0.982287251,-0.187381315,6060,-11890,-32672,937,-183,75,1015,651,442,2
138840700,30866,-4928,9430,-0.999815712,-0.019197442,0.128795597,-0.98450318,-0.175366726,29960,-5618,24988,152,-11,-32,1047,647,437,2
138860700,24459,4662,7578,-0.999993908,0.003490651,0.120136839,-0.988493887,-0.15126082,16994,13564,20508,-730,-356,179,1049,659,437,2
138880700,24005,-698,6692,-1,6.12E-17,0.101056297,-0.99317065,-0.116670737,15808,1998,17592,287,-965,680,1073,671,398,2
138900700,28668,-16784,-9762,-0.999262916,-0.038387809,0.095845753,-0.994150964,-0.107999356,24964,-30778,-16152,1612,-761,500,1095,685,419,2
138920700,28136,-11939,-15535,-0.997314477,-0.073238197,0.09063258,-0.996041065,-0.088894297,23818,-21154,-28482,1450,-1354,434,1149,683,353,2
138940700,26362,-4701,-8557,-0.997052752,-0.076719028,0.085416923,-0.999390827,-0.034899497,20162,-6624,-16160,159,-2544,257,1181,669,312,2
138960700,21992,-7260,-9182,-0.997801468,-0.0662739,0.09063258,-0.999961923,0.008726535,11420,-11698,-18992,-428,-2263,51,1169,615,151,2
138980700,20651,-3914,-8211,-0.998719357,-0.05059294,0.092370587,-0.998440764,0.055821505,8806,-4872,-18614,-712,-2361,68,1141,567,46,2
139000700,19506,-3817,-7514,-0.99955986,-0.029666244,0.087155743,-0.994702817,0.102792537,6640,-4842,-18766,-842,-2373,241,1135,531,-33,2
139020700,17491,-526,-9280,-0.999945169,-0.010471784,0.080198924,-0.990268069,0.139173101,2778,1648,-23590,-861,-2091,126,1097,489,-136,2
139040700,14691,147,-9246,-0.99992537,0.012217001,0.073238197,-0.985996037,0.166768747,-2668,2782,-24536,-973,-1924,62,1067,451,-157,2
139060704,12398,-1379,-9396,-0.999262916,0.038387809,0.068015291,-0.982287251,0.187381315,-7134,-548,-25542,-1139,-1623,62,1025,399,-221,2
139080704,11259,-2211,-9310,-0.99756405,0.069756474,0.06104854,-0.979924705,0.199367934,-9340,-2486,-25788,-1351,-1347,116,1011,373,-258,2
139100704,8782,-3248,-9093,-0.994337944,0.106264071,0.055821505,-0.978867389,0.204496052,-14262,-4852,-25568,-1545,-1122,170,965,311,-289,2
139120704,8565,-2108,-9200,-0.989272333,0.146083029,0.047106451,-0.979222811,0.202787295,-14704,-2790,-25784,-1731,-911,168,955,259,-321,2
139140704,8068,681,-9254,-0.981627183,0.190808995,0.029666244,-0.979924705,0.199367934,-15740,2440,-25784,-1901,-811,204,937,227,-340,2
139160704,7478,2352,-7801,-0.972775878,0.231747903,0.00698126,-0.980271175,0.19765734,-16950,5178,-22808,-1822,-921,292,909,175,-344,2
139180704,8157,-639,-5903,-0.964095404,0.265556117,0,-0.980955155,0.194234351,-15628,-1376,-18826,-1457,-753,154,903,135,-361,2
139200704,9683,-2287,-4299,-0.955793015,0.294040325,-0.001745328,-0.980955155,0.194234351,-12604,-4860,-15470,-1177,-709,73,891,93,-374,2
139220704,13446,-5976,-2236,-0.942057453,0.33545157,-0.001745328,-0.977783237,0.209618563,-5030,-12430,-11590,-1825,-1030,126,869,49,-382,2
139240704,15102,-4817,-374,-0.927183855,0.374606593,-0.005235964,-0.971961001,0.235142113,-1540,-10146,-8624,-1714,-1398,149,857,1,-412,2
139260704,16929,2284,609,-0.915662593,0.401947777,-0.02094242,-0.97113428,0.238533458,2154,3954,-6748,-1231,-423,212,829,-41,-395,2
139280704,17352,8124,11514,-0.90408255,0.427357863,-0.047106451,-0.969872015,0.243615012,2942,15002,15384,-1266,109,359,831,-57,-384,2
139300704,13181,11977,14690,-0.893371388,0.449318999,-0.071497444,-0.96814764,0.250380004,-5354,22028,21690,-1082,244,195,831,-105,-390,2
139320704,14049,7686,17018,-0.880477354,0.474088209,-0.081938509,-0.965925826,0.258819045,-3534,12910,26154,-1149,223,-194,831,-113,-389,2
139340704,8689,8250,8849,-0.860742027,0.509041416,-0.094108313,-0.97236992,0.233445364,-14426,13834,10568,-1541,1466,-450,831,-159,-325,2
139360704,10446,7104,1629,-0.852640164,0.522498565,-0.09063258,-0.988493887,0.15126082,-11376,11698,-1596,-498,3308,-900,889,-191,-248,2
139380704,31722,5367,16368,-0.853550797,0.521009632,-0.088894297,-0.976672278,0.214735327,31564,7842,26044,126,-2293,-85,919,-187,-237,2
139400704,27698,-3534,9518,-0.86949493,0.493941867,-0.071497444,-0.981958713,0.189095443,23352,-9630,13076,1312,1341,-237,895,-195,-256,2
139420704,7955,-6589,-2627,-0.890212805,0.455544907,-0.022687334,-0.994880709,0.101056297,-16604,-14598,-8790,1967,3254,-909,923,-171,-230,2
139440704,6337,-8246,-9990,-0.907777479,0.419452082,0.01396218,-0.99897057,0.045362988,-19948,-16540,-22126,1742,1405,-794,961,-135,-156,2
139460708,18225,-10846,-4500,-0.904827052,0.425779292,0.033155178,-0.99912283,0.041875654,3826,-21050,-10554,-241,-104,-188,969,-133,-183,2
139480708,20704,-1243,1201,-0.893371388,0.449318999,0.040131793,-0.999610115,0.027921639,8778,-1124,1520,-1084,558,-349,971,-141,-152,2
139500708,14372,-1601,1856,-0.884580975,0.46638664,0.052335956,-0.999986292,0.005235964,-3880,-1500,3714,-689,1129,-419,985,-167,-84,2
139520708,16219,-54,1531,-0.88376563,0.467929814,0.06279052,-0.999815712,-0.019197442,-144,2056,3816,-56,1079,-504,991,-157,-68,2
139540708,14956,-2641,1690,-0.890212805,0.455544907,0.076719028,-0.999262916,-0.038387809,-2628,-2862,4822,591,940,-406,1011,-143,-25,2
139560708,15320,-2282,785,-0.89571176,0.444635179,0.087155743,-0.998134798,-0.06104854,-1826,-1744,3726,520,1017,-406,1045,-145,-19,2
139580708,14787,-1692,782,-0.901832526,0.432085749,0.0975829,-0.996492859,-0.083677843,-2802,-200,4426,541,955,-418,1027,-127,49,2
139600708,15640,-3906,-234,-0.907777479,0.419452082,0.107999356,-0.994702817,-0.102792537,-1006,-4364,2996,608,849,-365,1057,-123,64,2
139620708,15544,-4198,-253,-0.911403277,0.411514359,0.118403968,-0.992114701,-0.125333234,-1074,-4630,3674,321,959,-264,1055,-131,72,2
139640708,15037,-4018,247,-0.909236109,0.416280792,0.128795597,-0.989776231,-0.142628934,-1956,-3940,5308,-193,945,-205,1053,-125,108,2
139660708,15953,-2768,-658,-0.902585284,0.430511097,0.135715572,-0.986855716,-0.161603821,8,-1116,4076,-625,995,-137,1067,-119,116,2
139680708,15649,-1870,-738,-0.89648643,0.443071191,0.140901232,-0.982935349,-0.183951351,-434,900,4632,-537,1130,-130,1063,-121,190,2
139700708,16052,-1445,-1503,-0.894154237,0.447759088,0.144356201,-0.977783237,-0.209618563,570,1924,3928,-187,1238,-198,1083,-103,202,2
139720708,16820,213,-1501,-0.89571176,0.444635179,0.144356201,-0.97113428,-0.238533458,2350,5360,4878,133,1330,-249,1083,-97,270,2
139740708,16507,1259,-726,-0.900318771,0.435231099,0.140901232,-0.963630453,-0.267238376,1990,7400,7448,429,1420,-236,1095,-87,334,2
139760708,16830,1197,1026,-0.905568799,0.424199423,0.135715572,-0.956813584,-0.290702194,2876,7070,11832,573,1326,-169,1087,-85,342,2
139780708,17554,215,2027,-0.910683661,0.41310443,0.13225639,-0.950515732,-0.31067643,4528,4904,14542,566,1263,-160,1085,-93,407,2
139800708,18034,-198,2825,-0.91636273,0.400349033,0.128795597,-0.943222658,-0.332161132,5730,3958,16866,622,1375,-220,1079,-91,443,2
139820708,19079,1275,3747,-0.921863152,0.387515586,0.125333234,-0.936672189,-0.350207381,8058,6832,19356,597,1349,-249,1065,-89,461,2
139840712,19189,2071,4286,-0.927183855,0.374606593,0.118403968,-0.931691228,-0.36325123,8436,8278,20860,643,1124,-272,1063,-79,530,2
139860712,20184,1807,5581,-0.931691228,0.36325123,0.113203214,-0.932953535,-0.359996808,10384,7530,23400,563,524,-185,1045,-59,559,2
139880712,21371,3286,8319,-0.934825676,0.355106962,0.104528463,-0.940288127,-0.34037955,12496,10224,28286,440,-124,-40,1019,-75,592,2
139900712,20391,934,17365,-0.935444031,0.353474844,0.094108313,-0.957319498,-0.289031797,9956,5088,-20588,294,-1168,198,1017,-63,646,2
139920712,29204,1268,13426,-0.926528631,0.376224263,0.085416923,-0.970295726,-0.241921896,27034,5472,-30168,-785,-1117,494,1009,-65,660,2
139940712,18836,7623,11863,-0.919821497,0.392337117,0.074978727,-0.969872015,-0.243615012,6322,18124,32332,-609,933,112,1005,-45,640,2
139960712,26897,-5102,4902,-0.931691228,0.36325123,0.06279052,-0.971961001,-0.235142113,22230,-8246,17898,1438,49,347,969,5,677,2
139980712,22895,-21236,-6912,-0.952661481,0.304033061,0.045362988,-0.977045574,-0.213030386,13864,23952,-6830,2882,-1120,858,997,23,644,2
140000712,23622,-16429,-11384,-0.959313975,0.282341457,0.041875654,-0.982287251,-0.187381315,15146,-31942,-16810,1018,-1377,544,1001,23,580,2
140020712,27922,-9744,-10120,-0.952129393,0.305695305,0.047106451,-0.988228381,-0.152985836,23568,-18196,-15398,-927,-1637,306,1057,65,478,2
140040712,27460,-6097,-10101,-0.942641491,0.333806859,0.05059294,-0.993960955,-0.109734311,22456,-10648,-16788,-1177,-1981,176,1059,67,401,2
140060712,23633,-5049,-9014,-0.936059536,0.351841648,0.055821505,-0.997915618,-0.064532308,14678,-8372,-16172,-775,-2204,36,1115,53,271,2
140080712,19202,-4968,-9227,-0.931055816,0.364876784,0.06279052,-0.999815712,-0.019197442,5770,-8020,-18146,-552,-2256,-37,1121,55,192,2
140100712,16262,-5477,-10115,-0.923210217,0.384295323,0.068015291,-0.999815712,0.019197442,-92,-8916,-21302,-861,-2161,52,1093,47,83,2
140120712,15068,-3732,-11129,-0.912120116,0.409923034,0.068015291,-0.998629535,0.052335956,-2420,-5328,-24542,-1181,-2076,100,1083,23,-22,2
140140712,14517,-1380,-10855,-0.900318771,0.435231099,0.068015291,-0.996345296,0.085416923,-3422,-548,-25092,-1151,-2053,-9,1065,-1,-82,2
140160712,12005,-2835,-10984,-0.888617233,0.458649554,0.071497444,-0.993767919,0.111468932,-8338,-3424,-26248,-1054,-1860,-122,1047,-19,-132,2
140180712,10019,-4150,-10997,-0.875464527,0.483282383,0.078459096,-0.991444861,0.130526192,-12204,-5900,-26956,-1207,-1669,-200,1037,-17,-156,2
140200712,8680,-4426,-10825,-0.857167301,0.515038075,0.085416923,-0.988756381,0.149535343,-14768,-6260,-27232,-1491,-1629,-197,997,-17,-220,2
140220716,7882,-3322,-10259,-0.834847863,0.55048074,0.088894297,-0.985996037,0.166768747,-16236,-3880,-26728,-1739,-1649,-191,995,-45,-256,2
140240716,8294,-2509,-9775,-0.81004164,0.586372357,0.09063258,-0.983254908,0.182235525,-15306,-2146,-26238,-1835,-1484,-230,961,-61,-282,2
140260716,7915,-673,-9187,-0.786935022,0.617035875,0.09063258,-0.982287251,0.187381315,-16006,1624,-25274,-1574,-1152,-261,941,-81,-310,2
140280716,10262,-1116,-5773,-0.766044443,0.64278761,0.09063258,-0.980955155,0.194234351,-11302,752,-18468,-1359,-944,-282,943,-103,-299,2
140300716,10498,-1526,-2209,-0.74779809,0.663926213,0.088894297,-0.977783237,0.209618563,-10782,-166,-11594,-1145,-1013,-90,915,-103,-338,2
140320716,14628,2297,1421,-0.731353702,0.68199836,0.073238197,-0.970295726,0.241921896,-2356,7234,-5124,-1066,-1419,139,915,-117,-356,2
140340716,16930,5047,3705,-0.727772758,0.685818353,0.054078813,-0.962691746,0.270600446,2456,12216,-1442,-247,-1287,311,881,-135,-369,2
140360716,13651,9136,12918,-0.733729865,0.679441304,0.040131793,-0.959313975,0.282341457,-4122,20088,17008,406,-64,82,889,-133,-406,2
140380716,13076,8237,12089,-0.733729865,0.679441304,0.031410759,-0.956304756,0.292371705,-5198,17946,15030,30,80,-154,889,-117,-392,2
140400716,18063,6956,13100,-0.726574671,0.687087511,0.02094242,-0.951056516,0.309016994,4954,14936,16398,-324,-363,-91,883,-125,-413,2
140420716,18004,6129,10914,-0.726574671,0.687087511,0.022687334,-0.943800952,0.330514393,5082,13306,11260,122,-657,-408,875,-125,-419,2
140440716,14571,5831,6697,-0.728968627,0.684547106,0.026176948,-0.937888935,0.346935652,-1536,12936,2138,403,-686,-551,859,-111,-449,2
140460716,7163,5701,4479,-0.731353702,0.68199836,0.017452406,-0.937281989,0.348572047,-16366,12586,-2258,305,125,-251,875,-105,-452,2
140480716,16709,-2167,452,-0.724171861,0.689619544,0.038387809,-0.960779154,0.277314653,2060,-3130,-8364,-209,2707,-837,887,-91,-405,2
140500716,32764,-947,4978,-0.727772758,0.685818353,0.043619387,-0.957319498,0.289031797,-31252,-442,420,296,-645,-129,907,-71,-421,2
140520716,21558,3368,4031,-0.70463421,0.709570737,0.041875654,-0.96944535,0.245307386,11454,8304,18,-1258,1777,-519,907,-71,-412,2
140540716,6925,-186,-2974,-0.710799474,0.703394703,0.064532308,-0.990023658,0.140901232,-18426,1826,-10974,581,3653,-919,975,-75,-321,2
140560716,9801,1533,-12831,-0.731353702,0.68199836,0.080198924,-0.997185134,0.074978727,-12826,5846,-28836,1172,1627,-632,1031,-63,-269,2
140580716,17090,-14028,-6260,-0.74779809,0.663926213,0.0975829,-0.998239828,0.059306374,1680,-25344,-14698,1031,162,-13,1027,-33,-236,2
140600720,20625,-10091,-4260,-0.759271307,0.650774217,0.113203214,-0.999390827,0.034899497,8786,-16790,-9848,700,605,-163,1033,-11,-239,2
140620720,13105,-9369,356,-0.764921401,0.64412363,0.137444546,-0.99992537,0.012217001,-6204,-14682,380,413,915,-416,1059,19,-241,2
140640720,18274,-6055,-981,-0.763796029,0.645457688,0.147809411,-0.999902524,-0.01396218,4232,-7380,-1532,-53,971,-275,1083,29,-203,2
140660720,16000,-1004,955,-0.753563392,0.657375246,0.152985836,-0.999390827,-0.034899497,-232,3124,3138,-609,1038,-278,1091,23,-206,2
140680720,15123,-1442,1744,-0.74779809,0.663926213,0.158158067,-0.998440764,-0.055821505,-1926,2370,5482,-297,1113,-245,1099,25,-147,2
140700720,14364,-2718,1354,-0.752414909,0.65868946,0.166768747,-0.996637387,-0.081938509,-3344,34,5540,330,1200,-370,1125,35,-115,2
140720720,14780,-2965,1668,-0.76266833,0.64678978,0.175366726,-0.994337944,-0.106264071,-2374,-152,6988,642,1125,-425,1145,55,-58,2
140740720,14805,-917,1995,-0.776046407,0.630675807,0.180519145,-0.9909832,-0.133986185,-2156,4196,8582,875,1283,-400,1165,81,-53,2
140760720,12937,-3280,5695,-0.791223533,0.61152704,0.189095443,-0.987959866,-0.154710386,-5720,-412,16916,1054,1305,-455,1177,97,-50,2
140780720,13418,-5699,7609,-0.79335334,0.608761429,0.204496052,-0.987413807,-0.158158067,-4634,-4828,20886,214,810,-489,1183,127,-6,2
140800720,20457,2532,-1080,-0.782608157,0.622514637,0.206204185,-0.984807753,-0.173648178,9556,12142,3550,-650,922,-296,1201,117,27,2
140820720,17329,6651,-2046,-0.783693457,0.62114778,0.194234351,-0.978508985,-0.206204185,3460,20234,2576,20,1359,-208,1215,111,65,2
140840720,14351,-958,-1595,-0.796529918,0.604599115,0.194234351,-0.970716482,-0.240228042,-2312,4596,4666,896,1412,-324,1217,137,89,2
140860720,15743,-5687,-730,-0.809016994,0.587785252,0.202787295,-0.962691746,-0.270600446,768,-4860,7460,776,1385,-367,1251,137,144,2
140880720,18012,-2626,728,-0.814115518,0.580702956,0.202787295,-0.956304756,-0.292371705,5582,1452,11132,447,1176,-194,1251,149,200,2
140900720,17622,-2115,162,-0.826098294,0.563526049,0.201077921,-0.94776841,-0.318959309,5086,2462,10860,899,1341,-331,1259,153,236,2
140920720,17111,-834,1417,-0.836764313,0.547563223,0.19765734,-0.940288127,-0.34037955,4326,4978,14106,789,1216,-306,1253,179,257,2
140940720,18087,34,888,-0.843391446,0.537299608,0.192521967,-0.935444031,-0.353474844,6438,6608,13498,601,987,-248,1267,173,296,2
140960720,19884,906,1638,-0.848971688,0.528438335,0.189095443,-0.932323801,-0.36162457,10114,8252,15250,454,723,-273,1281,193,322,2
140980720,19644,3519,4342,-0.852640164,0.522498565,0.182235525,-0.933580426,-0.35836795,9612,13370,20666,379,445,-275,1263,167,335,2
141000724,19529,5919,8798,-0.85445883,0.519519112,0.1719291,-0.941470545,-0.337095258,9114,17890,29036,275,-148,-134,1291,189,372,2
141020724,18981,9556,14009,-0.849892693,0.526955795,0.154710386,-0.954240329,-0.299040792,7526,24652,-27150,-120,-630,244,1277,169,331,2
141040724,18708,17300,25136,-0.839619865,0.54317445,0.135715572,-0.963162567,-0.268919821,6598,-25948,-5776,-523,-185,318,1307,169,335,2
141060724,32764,6945,8811,-0.865151421,0.501510737,0.101056297,-0.965472631,-0.260504509,-31206,17498,26586,2277,-50,489,1307,131,348,2
141080724,32519,-3314,4530,-0.894154237,0.447759088,0.055821505,-0.966376079,-0.257132793,-31914,-4814,17914,2916,165,1150,1311,119,389,2
141100724,27089,-22443,-9839,-0.933580426,0.35836795,0.029666244,-0.969872015,-0.243615012,22424,21092,-11656,4321,-837,698,1295,83,374,2
141120724,24803,-28712,-18882,-0.951594404,0.307356618,0.019197442,-0.978867389,-0.204496052,17556,8128,-31286,2405,-2033,729,1269,53,327,2
141140724,27819,-22725,-10248,-0.94664926,0.322265695,0.027921639,-0.988756381,-0.149535343,23316,20466,-15692,-497,-2463,456,1255,43,240,2
141160724,27657,-13996,-10542,-0.925870585,0.377840787,0.038387809,-0.995561965,-0.094108313,22742,-27092,-18170,-2371,-2535,368,1247,41,150,2
141180724,24944,-10580,-11028,-0.901832526,0.432085749,0.041875654,-0.998806137,-0.04884977,17220,-20078,-20728,-2363,-2183,424,1231,43,106,2
141200724,18518,-10277,-11314,-0.879648573,0.475624209,0.043619387,-0.999961923,-0.008726535,4344,-19486,-22750,-1968,-2132,461,1203,41,57,2
141220724,15954,-6490,-11368,-0.85536426,0.518027009,0.040131793,-0.999450216,0.033155178,-754,-11894,-24286,-1998,-2277,426,1195,7,-10,2
141240724,14184,-5708,-12653,-0.830012285,0.557745109,0.033155178,-0.998026728,0.06279052,-4230,-10530,-27974,-1954,-2025,487,1161,-21,-93,2
141260724,11467,-3851,-13097,-0.802817475,0.596224875,0.027921639,-0.996194698,0.087155743,-9580,-6934,-29758,-1946,-1891,301,1113,-59,-143,2
141280724,9634,-3786,-12942,-0.772733573,0.634730513,0.026176948,-0.994521895,0.104528463,-13174,-6912,-30058,-2006,-1667,164,1093,-69,-154,2
141300724,6617,-3692,-11935,-0.740804596,0.671720589,0.022687334,-0.993372766,0.11493715,-19158,-6842,-28398,-2004,-1408,168,1059,-113,-187,2
141320724,5393,-2585,-11221,-0.703394703,0.710799474,0.017452406,-0.992965508,0.118403968,-21586,-4766,-27134,-2252,-1242,190,1053,-121,-193,2
141340724,4512,-2898,-10850,-0.662620048,0.748955721,0.012217001,-0.992114701,0.125333234,-23320,-5590,-26610,-2301,-1370,176,1027,-159,-224,2
141360724,6908,-2493,-10837,-0.62114778,0.783693457,0.010471784,-0.99074784,0.135715572,-18480,-4778,-26896,-2144,-1497,-21,1031,-189,-236,2
141380728,9039,-79,-7181,-0.58212297,0.813100761,0,-0.989525789,0.144356201,-14188,-116,-19756,-2008,-1278,133,971,-225,-276,2
141400728,11289,-1924,-3392,-0.54317445,0.839619865,-0.001745328,-0.986285602,0.165047606,-9628,-4076,-12530,-1910,-1342,40,953,-251,-276,2
141420728,16346,490,555,-0.513541252,0.858064906,-0.01396218,-0.97957525,0.201077921,672,492,-5566,-1461,-1720,258,931,-277,-300,2
141440728,15546,3824,747,-0.49848774,0.866896749,-0.031410759,-0.974761194,0.223250116,-742,6770,-5908,-771,-1133,307,897,-299,-338,2
141460728,15733,6226,7486,-0.474088209,0.880477354,-0.05059294,-0.973578903,0.22835087,-386,11038,7756,-1157,-28,161,889,-333,-346,2
141480728,14063,8541,11029,-0.43993917,0.898027576,-0.06104854,-0.96944535,0.245307386,-3626,15412,14436,-1495,-377,-389,867,-359,-304,2
141500728,16935,5472,10638,-0.405141587,0.914253955,-0.064532308,-0.965925826,0.258819045,2260,8986,13154,-1486,-304,-485,887,-361,-302,2
141520728,17077,5912,10681,-0.374606593,0.927183855,-0.064532308,-0.964095404,0.265556117,2604,9900,13000,-1232,-60,-628,885,-373,-285,2
141540728,15555,9858,7466,-0.342020143,0.939692621,-0.074978727,-0.963630453,0.267238376,-380,17678,6374,-1302,-21,-487,893,-361,-271,2
141560728,6500,10247,-3064,-0.290702194,0.956813584,-0.101056297,-0.980614659,0.195946144,-18940,17910,-12762,-2101,2407,-351,887,-379,-235,2
141580728,19955,-2176,11112,-0.3007058,0.953716951,-0.0662739,-0.98450318,0.175366726,7750,-6696,16846,569,1226,-1137,943,-367,-140,2
141600728,32764,12102,3355,-0.305695305,0.952129393,-0.076719028,-0.984195608,0.17708474,-32092,21934,920,256,-103,150,953,-339,-160,2
141620728,13762,2731,5251,-0.317304656,0.948323655,-0.06104854,-0.989015863,0.147809411,-4784,3568,5914,645,1435,-706,951,-357,-160,2
141640728,10230,-12973,-4700,-0.368124553,0.929776486,-0.001745328,-0.996345296,0.085416923,-12116,-26776,-12404,2349,2267,-1206,995,-295,-122,2
141660728,11602,-8084,-9089,-0.387515586,0.921863152,0.027921639,-0.999048222,0.043619387,-9410,-15668,-20138,938,946,-668,1015,-267,-101,2
141680728,19000,-9142,-6227,-0.384295323,0.923210217,0.041875654,-0.999742609,0.022687334,5358,-17274,-13466,-145,477,-78,1017,-243,-91,2
141700728,15963,-5353,-444,-0.369746757,0.929132572,0.057564027,-0.999986292,0.005235964,-702,-9072,-1048,-600,705,-321,1015,-223,-71,2
141720728,15118,-7038,129,-0.355106962,0.934825676,0.076719028,-0.999902524,-0.01396218,-2352,-11904,746,-611,795,-339,1041,-229,-71,2
141740728,17656,-3703,-1302,-0.348572047,0.937281989,0.09063258,-0.999194395,-0.040131793,2802,-4546,-1280,-290,1072,-410,1043,-235,-28,2
141760732,15384,-1485,457,-0.343659695,0.939094252,0.09931975,-0.998026728,-0.06279052,-1652,330,3076,-171,1012,-395,1053,-221,18,2
141780732,15968,195,912,-0.342020143,0.939692621,0.104528463,-0.996492859,-0.083677843,-396,3966,4706,-80,1007,-338,1091,-199,50,2
141800732,15350,253,2158,-0.348572047,0.937281989,0.107999356,-0.994880709,-0.101056297,-1546,4212,7890,326,991,-331,1079,-197,63,2
141820732,14846,-931,2376,-0.36325123,0.931691228,0.113203214,-0.992757342,-0.120136839,-2468,1928,8946,627,988,-327,1089,-169,102,2
141840732,14979,-2321,1817,-0.37945616,0.925209718,0.118403968,-0.989776231,-0.142628934,-2092,-772,8526,747,1115,-258,1111,-185,99,2
141860732,15186,-3769,1430,-0.385906042,0.922538089,0.123601477,-0.986855716,-0.161603821,-1554,-3550,8388,325,1078,-153,1109,-163,122,2
141880732,16791,-2376,534,-0.377840787,0.925870585,0.127064609,-0.983254908,-0.182235525,1796,-548,7192,-259,1086,-69,1125,-163,169,2
141900732,15922,-1950,-303,-0.368124553,0.929776486,0.130526192,-0.978508985,-0.206204185,228,436,6282,-432,1273,-54,1125,-165,194,2
141920732,16778,-600,-1222,-0.35836795,0.933580426,0.13225639,-0.972775878,-0.231747903,2144,3254,5250,-399,1307,-62,1127,-155,242,2
141940732,17148,258,43,-0.351841648,0.936059536,0.13225639,-0.966823389,-0.255445758,3114,5026,8624,-232,1304,-121,1119,-151,284,2
141960732,16541,968,1695,-0.350207381,0.936672189,0.13225639,-0.96174131,-0.273959219,2112,6450,12644,-40,1250,-170,1127,-133,302,2
141980732,16379,2361,3043,-0.348572047,0.937281989,0.127064609,-0.956813584,-0.290702194,1958,9152,15930,30,1201,-122,1121,-141,317,2
142000732,16417,2222,3258,-0.353474844,0.935444031,0.121869343,-0.950515732,-0.31067643,2234,8692,17046,246,1407,-152,1119,-127,357,2
142020732,17197,1748,2885,-0.364876784,0.931055816,0.11493715,-0.942057453,-0.33545157,4054,7516,17114,552,1577,-191,1115,-117,385,2
142040732,19348,2108,2132,-0.374606593,0.927183855,0.109734311,-0.936672189,-0.350207381,8512,8022,16062,478,1133,-144,1127,-107,397,2
142060732,20601,225,3864,-0.369746757,0.929132572,0.107999356,-0.939094252,-0.343659695,10946,4142,19356,-155,328,-47,1123,-101,441,2
142080732,19565,1586,9808,-0.346935652,0.937888935,0.102792537,-0.94776841,-0.318959309,8626,6732,30630,-797,-109,344,1113,-97,413,2
142100732,17189,3062,20803,-0.31067643,0.950515732,0.095845753,-0.965016494,-0.262189179,3294,9424,-14512,-1260,-1128,574,1101,-117,388,2
142120732,25341,2117,12688,-0.262189179,0.965016494,0.092370587,-0.972775878,-0.231747903,19234,7444,-31962,-1926,-293,459,1119,-111,372,2
142140736,25600,9393,8638,-0.233445364,0.97236992,0.078459096,-0.969872015,-0.243615012,19810,21792,25746,-1073,1236,364,1091,-127,385,2
142160736,23462,-5545,9842,-0.255445758,0.966823389,0.068015291,-0.972775878,-0.231747903,15382,-8994,27808,1112,90,392,1055,-121,373,2
142180736,20928,-26483,-1492,-0.318959309,0.94776841,0.052335956,-0.978147601,-0.207911691,9914,13576,3950,3016,-1047,907,1057,-117,373,2
142200736,20624,-28089,-11573,-0.33545157,0.942057453,0.054078813,-0.982612797,-0.185666615,9144,10432,-17254,895,-1199,669,1025,-147,291,2
142220736,26888,-18178,-9986,-0.289031797,0.957319498,0.068015291,-0.988228381,-0.152985836,21518,30960,-15072,-1945,-1419,354,1001,-161,252,2
142240736,27549,-11486,-9257,-0.226651307,0.973975967,0.081938509,-0.992965508,-0.118403968,22706,-20524,-14782,-2628,-1506,123,981,-181,200,2
142260736,22182,-8715,-8416,-0.170209499,0.985407898,0.09063258,-0.997052752,-0.076719028,11862,-14672,-14538,-2302,-1838,196,963,-185,186,2
142280736,19706,-9242,-7783,-0.121869343,0.992546152,0.092370587,-0.999610115,-0.027921639,6828,-15726,-14920,-1960,-2213,423,933,-181,184,2
142300736,19400,-9671,-9037,-0.071497444,0.997440783,0.092370587,-0.999780683,0.02094242,6214,-16624,-19074,-2057,-2261,442,895,-195,121,2
142320736,18153,-6082,-10424,-0.022687334,0.999742609,0.083677843,-0.997915618,0.064532308,3788,-9568,-23380,-2050,-2235,466,863,-183,113,2
142340736,16782,-3530,-11517,0.026176948,0.999657325,0.078459096,-0.994880709,0.101056297,1162,-4588,-26874,-2104,-2116,225,823,-233,75,2
142360736,13555,-2243,-11936,0.071497444,0.997440783,0.071497444,-0.991671162,0.128795597,-5164,-2188,-28734,-1934,-1912,112,801,-229,79,2
142380736,10483,-2579,-11762,0.11493715,0.993372766,0.0662739,-0.988493887,0.15126082,-11192,-3058,-29176,-1808,-1779,66,761,-235,73,2
142400736,9113,-2670,-12764,0.161603821,0.986855716,0.06104854,-0.985996037,0.166768747,-13840,-3438,-31760,-1989,-1611,59,739,-245,59,2
142420736,7523,-1165,-12812,0.213030386,0.977045574,0.05059294,-0.983571471,0.180519145,-16942,-686,-32316,-2216,-1535,83,705,-267,54,2
142440736,7194,359,-12223,0.265556117,0.964095404,0.036643709,-0.981958713,0.189095443,-17552,2000,-31446,-2267,-1414,83,687,-269,54,2
142460736,7855,3792,-11125,0.307356618,0.951594404,0.015707317,-0.981292664,0.192521967,-16216,8394,-29340,-1852,-1179,171,691,-279,80,2
142480736,8869,4118,-7113,0.332161132,0.943222658,-0.003490651,-0.97957525,0.201077921,-14160,8412,-21444,-1065,-1202,241,655,-283,80,2
142500736,10786,-462,-2875,0.343659695,0.939094252,-0.003490651,-0.975534544,0.219846204,-10234,-1110,-13356,-471,-1375,-59,645,-297,74,2
142520736,16473,-3974,-620,0.359996808,0.932953535,-0.00698126,-0.96770917,0.252069358,1350,-8426,-9686,-748,-1663,244,631,-299,79,2
142540740,15716,-783,1857,0.376224263,0.926528631,-0.017452406,-0.958322574,0.285688367,136,-2208,-5766,-845,-1691,274,625,-317,41,2
142560740,16813,3933,11735,0.387515586,0.921863152,-0.026176948,-0.952129393,0.305695305,2408,7152,13784,-516,-487,21,603,-297,38,2
142580740,19177,9569,15108,0.409923034,0.912120116,-0.033155178,-0.946085359,0.323917418,7322,18370,19946,-863,-447,-421,597,-317,46,2
142600740,15672,9475,16932,0.433659085,0.901077021,-0.034899497,-0.939692621,0.342020143,468,18130,23128,-854,-283,-664,591,-309,29,2
142620740,14482,10543,12661,0.438371147,0.898794046,-0.036643709,-0.936059536,0.351841648,-1744,20308,14118,-73,-120,-544,581,-301,52,2
142640740,6650,9509,5940,0.43993917,0.898027576,-0.05059294,-0.933580426,0.35836795,-17314,18026,434,40,34,-294,575,-311,61,2
142660740,3670,-1362,5229,0.458649554,0.888617233,-0.019197442,-0.9547608,0.297374874,-24092,-3592,1362,-436,3260,-1208,599,-283,68,2
142680740,32764,-6362,-10217,0.455544907,0.890212805,-0.005235964,-0.957319498,0.289031797,-31148,-13096,-30390,276,-339,-277,617,-255,111,2
142700740,27795,17362,11417,0.518027009,0.85536426,-0.036643709,-0.960293686,0.278991106,24124,-31602,13854,-2970,484,-95,593,-257,94,2
142720740,11948,1886,-3177,0.515038075,0.857167301,-0.017452406,-0.980614659,0.195946144,-8108,3308,-13148,369,2903,-913,611,-241,152,2
142740740,6911,-4450,-8293,0.49848774,0.866896749,0.022687334,-0.99074784,0.135715572,-18482,-8488,-21696,987,1588,-1092,621,-217,186,2
142760740,15749,-11568,-7920,0.475624209,0.879648573,0.04884977,-0.99317065,0.116670737,-896,-21978,-20048,1156,158,-336,617,-189,216,2
142780740,19497,-12695,-3068,0.458649554,0.888617233,0.074978727,-0.9952274,0.0975829,6548,-23362,-9476,804,473,-378,617,-185,195,2
142800740,14918,-10121,-1885,0.458649554,0.888617233,0.09931975,-0.997684279,0.068015291,-2626,-17402,-6120,74,959,-423,609,-169,189,2
142820740,17209,-6600,-3499,0.469471563,0.882947593,0.116670737,-0.999450216,0.033155178,1976,-9556,-8232,-469,1227,-449,613,-161,227,2
142840740,16304,-2312,-1701,0.478691858,0.877982975,0.128795597,-1,6.12E-17,212,-394,-3458,-404,1241,-442,603,-153,241,2
142860740,16314,-817,-582,0.48480962,0.874619707,0.137444546,-0.999610115,-0.027921639,304,2958,-240,-264,1130,-433,611,-139,260,2
142880740,16268,-638,-721,0.48480962,0.874619707,0.144356201,-0.998440764,-0.055821505,296,3600,418,-6,1154,-457,617,-133,284,2
142900740,15909,-772,-877,0.480223497,0.877146164,0.152985836,-0.996345296,-0.085416923,-308,3616,1046,208,1151,-498,617,-127,309,2
142920744,15708,-596,-841,0.471011881,0.882126866,0.159881188,-0.993571856,-0.113203214,-570,4222,2070,398,1158,-490,633,-115,295,2
142940744,15267,-1433,-253,0.4539905,0.891006524,0.166768747,-0.989776231,-0.142628934,-1288,2696,4272,767,1230,-436,629,-99,323,2
142960744,14362,-2710,-152,0.435231099,0.900318771,0.1719291,-0.98450318,-0.175366726,-2902,254,5512,804,1327,-360,629,-103,342,2
142980744,16025,-3332,-855,0.422618262,0.906307787,0.17708474,-0.978508985,-0.206204185,654,-852,5112,598,1371,-269,623,-99,350,2
143000744,16917,-946,372,0.414693243,0.909961271,0.17708474,-0.97236992,-0.233445364,2688,4058,8498,376,1319,-224,633,-99,371,2
143020744,16276,123,2521,0.406736643,0.913545458,0.175366726,-0.966376079,-0.257132793,1650,6208,13700,459,1388,-273,627,-89,401,2
143040744,17134,-473,2989,0.39394191,0.919135339,0.17708474,-0.960293686,-0.278991106,3584,5004,15386,566,1357,-351,625,-85,415,2
143060744,18121,1465,3100,0.382683432,0.923879533,0.1719291,-0.953190668,-0.302369891,5786,8826,16348,588,1395,-275,625,-73,425,2
143080744,17638,3045,3784,0.366501227,0.930417568,0.163325962,-0.94664926,-0.322265695,5036,11770,18464,756,1391,-258,625,-69,438,2
143100744,19521,5044,3055,0.343659695,0.939094252,0.15126082,-0.939094252,-0.343659695,8982,15434,17642,1038,1266,-317,623,-55,446,2
143120744,19260,1803,3118,0.318959309,0.94776841,0.142628934,-0.935444031,-0.353474844,8538,8492,18160,1120,895,-289,617,-67,451,2
143140744,19564,385,4771,0.307356618,0.951594404,0.133986185,-0.939094252,-0.343659695,9002,5340,21196,622,145,-89,615,-67,469,2
143160744,18710,4900,9486,0.315649037,0.948876012,0.123601477,-0.950515732,-0.31067643,6918,14158,29708,-161,-533,182,607,-49,452,2
143180744,18454,9027,19094,0.342020143,0.939692621,0.109734311,-0.965016494,-0.262189179,5890,22044,-18006,-884,-906,376,601,-51,417,2
143200744,26196,305,16301,0.342020143,0.939692621,0.104528463,-0.974370065,-0.224951054,20960,4144,-24908,145,-715,95,593,-43,396,2
143220744,26316,7762,9330,0.33873792,0.940880769,0.081938509,-0.972775878,-0.231747903,21146,18558,26698,334,832,461,611,-37,388,2
143240744,22963,-9123,9190,0.289031797,0.957319498,0.057564027,-0.975534544,-0.219846204,14218,-16640,26104,2446,5,820,595,-37,371,2
143260744,22449,-24046,-7802,0.209618563,0.977783237,0.041875654,-0.978508985,-0.206204185,12888,18188,-8860,3599,-807,688,595,-57,355,2
143280744,24510,-21290,-13168,0.175366726,0.98450318,0.040131793,-0.985407898,-0.170209499,16796,23726,-20988,1503,-1868,529,601,-51,291,2
143300748,29125,-13560,-10829,0.207911691,0.978147601,0.045362988,-0.991894443,-0.127064609,25842,-25930,-17652,-1245,-1944,375,623,-93,231,2
143320748,30094,-8448,-9900,0.253757945,0.967267753,0.04884977,-0.996637387,-0.081938509,27622,-15454,-17268,-1925,-2036,334,627,-91,231,2
143340748,25159,-5873,-9667,0.289031797,0.957319498,0.05059294,-0.999328394,-0.036643709,17672,-10228,-18366,-1456,-2153,254,623,-109,186,2
143360748,18868,-5561,-10129,0.318959309,0.94776841,0.047106451,-0.999945169,0.010471784,5070,-9734,-20968,-1213,-2427,377,631,-127,174,2
143380748,16919,-4661,-10301,0.345298199,0.938493023,0.043619387,-0.99853667,0.054078813,1230,-8040,-22818,-1151,-2401,348,631,-143,130,2
143400748,14557,-2396,-11172,0.368124553,0.929776486,0.036643709,-0.995884399,0.09063258,-3384,-3674,-25882,-1045,-2281,358,617,-171,104,2
143420748,13242,-2600,-11921,0.38912395,0.921185406,0.034899497,-0.992965508,0.118403968,-5892,-4138,-28372,-933,-2026,85,619,-171,96,2
143440748,8993,-4554,-12435,0.411514359,0.911403277,0.040131793,-0.990509463,0.137444546,-14280,-7996,-30114,-1035,-1766,-57,615,-183,94,2
143460748,7261,-3333,-12403,0.441505853,0.89725837,0.041875654,-0.988493887,0.15126082,-17648,-5462,-30588,-1372,-1647,-10,603,-181,83,2
143480748,6046,-3033,-12486,0.47715876,0.878817113,0.041875654,-0.986285602,0.165047606,-19998,-4858,-31206,-1657,-1605,-35,593,-197,72,2
143500748,5723,-1507,-12430,0.515038075,0.857167301,0.036643709,-0.984807753,0.173648178,-20582,-1866,-31420,-1794,-1471,-6,609,-203,65,2
143520748,6455,621,-11372,0.549022818,0.835807361,0.024432178,-0.983571471,0.180519145,-19086,2122,-29470,-1680,-1310,138,601,-215,64,2
143540748,8183,2189,-6096,0.569279523,0.822144041,0.008726535,-0.981627183,0.190808995,-15602,4930,-19072,-1053,-1304,138,581,-227,73,2
143560748,10011,-161,-754,0.576432316,0.817144898,0.008726535,-0.976672278,0.214735327,-11864,-32,-8758,-374,-1344,-15,587,-241,66,2
143580748,18282,-3496,1534,0.580702956,0.814115518,0.010471784,-0.96814764,0.250380004,4928,-6776,-5216,-209,-1677,49,581,-223,41,2
143600748,16047,902,6180,0.583541211,0.812083527,0.001745328,-0.954240329,0.299040792,842,1962,2714,-126,-1971,259,575,-245,17,2
143620748,13915,4543,15371,0.583541211,0.812083527,0.001745328,-0.947210278,0.320612991,-3296,9364,20742,85,-377,-204,559,-231,9,2
143640748,16121,6332,12389,0.604599115,0.796529918,-0.005235964,-0.946085359,0.323917418,1192,12730,14526,-1029,235,-341,575,-231,23,2
143660748,19753,8809,11906,0.623879597,0.781520472,-0.017452406,-0.940880769,0.33873792,8664,17380,12950,-877,-445,-284,579,-231,23,2
143680752,18087,8814,10444,0.629320391,0.777145961,-0.02094242,-0.933580426,0.35836795,5580,17246,9346,-191,-693,-330,571,-239,31,2
143700752,14298,5017,5692,0.623879597,0.781520472,-0.02094242,-0.925209718,0.37945616,-1666,9632,-1010,449,-969,-284,557,-229,30,2
143720752,-775,2921,-584,0.634730513,0.772733573,-0.040131793,-0.927836254,0.372987783,-31880,5190,-13380,-472,200,-244,577,-209,-22,2
143740752,-1432,-8858,-8024,0.64678978,0.76266833,0.01396218,-0.966376079,0.257132793,31128,-17948,-24894,-136,4208,-1509,615,-223,40,2
143760752,29716,-16012,9653,0.627963058,0.778243149,0.055821505,-0.94776841,0.318959309,28420,-30554,8956,1297,-2686,-908,641,-173,76,2
143780752,32764,16622,7348,0.703394703,0.710799474,0.017452406,-0.94664926,0.322265695,-31008,-31246,4176,-4158,-90,-322,631,-189,75,2
143800752,9310,12017,5614,0.740804596,0.671720589,0.008726535,-0.96944535,0.245307386,-13194,25080,3498,-1968,3515,-1153,645,-187,121,2
143820752,10429,10846,-6775,0.738455341,0.674302388,0.033155178,-0.985407898,0.170209499,-11258,23440,-19536,571,2465,-1700,679,-163,217,2
143840752,10289,-3065,-5067,0.708339838,0.705871571,0.052335956,-0.990023658,0.140901232,-11678,-4612,-15224,1784,457,-245,707,-153,233,2
143860752,20182,-14095,-5209,0.68199836,0.731353702,0.073238197,-0.992546152,0.121869343,8002,-26246,-14622,1534,342,-66,701,-123,192,2
143880752,15011,-14205,-2222,0.671720589,0.740804596,0.104528463,-0.995724698,0.092370587,-2382,-25560,-7560,601,940,-458,703,-127,233,2
143900752,16641,-9711,-3011,0.67687597,0.736097087,0.125333234,-0.998134798,0.06104854,900,-15638,-8148,-233,1035,-447,699,-105,204,2
143920752,17349,-2671,-1088,0.68199836,0.731353702,0.139173101,-0.99955986,0.029666244,2366,-768,-3176,-247,1173,-527,711,-103,261,2
143940752,15116,-236,264,0.685818353,0.727772758,0.144356201,-0.999993908,0.003490651,-2064,4430,440,-186,1045,-395,719,-95,265,2
143960752,16531,752,297,0.685818353,0.727772758,0.147809411,-0.999780683,-0.02094242,802,6568,1312,10,1017,-357,723,-83,274,2
143980752,15727,-458,802,0.680720869,0.732542899,0.152985836,-0.99897057,-0.045362988,-754,4276,3194,357,1067,-405,727,-89,299,2
144000752,15206,-1546,632,0.669130606,0.743144825,0.161603821,-0.997440783,-0.071497444,-1706,2310,3700,617,1067,-453,725,-67,320,2
144020752,15152,-2445,-780,0.650774217,0.759271307,0.170209499,-0.994150964,-0.107999356,-1678,714,1964,998,1325,-420,731,-59,326,2
144040752,14739,-3603,-1098,0.629320391,0.777145961,0.17708474,-0.989272333,-0.146083029,-2304,-1416,2614,1077,1445,-375,723,-61,356,2
144060756,16196,-3458,-404,0.615661475,0.788010754,0.182235525,-0.984195608,-0.17708474,830,-940,5042,760,1274,-286,729,-39,398,2
144080756,16372,-2763,1488,0.60737584,0.794414621,0.183951351,-0.980614659,-0.195946144,1358,568,9564,441,1046,-196,735,-57,374,2
144100756,15974,-1729,1841,0.599023599,0.800731371,0.185666615,-0.975534544,-0.219846204,758,2730,11078,487,1281,-236,735,-49,433,2
144120756,16564,-1380,1180,0.586372357,0.81004164,0.185666615,-0.969015731,-0.246999013,2166,3462,10636,688,1402,-295,725,-35,413,2
144140756,16863,10,1320,0.572145873,0.820151876,0.183951351,-0.962217994,-0.272280247,3000,6222,11762,747,1337,-292,723,-29,452,2
144160756,16630,-422,1757,0.553391549,0.832921241,0.178802215,-0.955278362,-0.29570805,2750,5186,13426,945,1270,-276,709,-11,485,2
144180756,17093,-489,1541,0.53139858,0.847121921,0.173648178,-0.94776841,-0.318959309,3902,4880,13762,1108,1274,-310,721,-35,482,2
144200756,17933,-88,1112,0.509041416,0.860742027,0.166768747,-0.940880769,-0.33873792,5778,5480,13542,1145,1121,-302,699,-31,516,2
144220756,19194,-199,1531,0.490903754,0.871213811,0.159881188,-0.937888935,-0.346935652,8372,4984,14670,936,707,-170,705,-23,501,2
144240756,18771,58,4253,0.483282383,0.875464527,0.152985836,-0.940288127,-0.34037955,7458,5294,20016,485,295,-74,703,-27,520,2
144260756,19346,4162,7959,0.48633538,0.873772223,0.140901232,-0.948876012,-0.315649037,8318,13266,26740,41,-272,139,719,-33,536,2
144280756,20171,8943,16928,0.506033764,0.862513669,0.125333234,-0.964095404,-0.265556117,9406,22402,-22300,-656,-1061,402,723,-31,511,2
144300756,24653,1604,20190,0.513541252,0.858064906,0.120136839,-0.974761194,-0.223250116,17928,7282,-17156,-220,-821,152,707,-27,451,2
144320756,27507,7380,11579,0.516533329,0.856267085,0.106264071,-0.974761194,-0.223250116,23550,18576,30944,33,680,181,713,-31,464,2
144340756,26063,-3536,6521,0.472550765,0.881303452,0.078459096,-0.975916762,-0.218143241,20454,-4528,20624,2309,154,684,681,-39,487,2
144360756,21935,-18819,-6098,0.390731128,0.920504853,0.059306374,-0.978867389,-0.204496052,11868,29294,-5448,3943,-863,676,705,-47,464,2
144380756,24041,-16413,-14195,0.343659695,0.939094252,0.04884977,-0.984807753,-0.173648178,15868,-31674,-22952,2260,-1766,614,693,-87,393,2
144400756,27752,-9179,-8701,0.350207381,0.936672189,0.047106451,-0.991444861,-0.130526192,23124,-17050,-13278,-238,-1983,421,699,-81,354,2
144420756,30697,-7850,-9742,0.371367836,0.928485827,0.045362988,-0.996345296,-0.085416923,28850,-14344,-16868,-866,-2057,356,673,-83,307,2
144440760,26002,-4541,-9895,0.385906042,0.922538089,0.041875654,-0.999262916,-0.038387809,19362,-7786,-18774,-563,-2245,348,655,-97,266,2
144460760,18347,-4077,-10566,0.395545503,0.918446381,0.036643709,-0.999986292,0.005235964,4022,-7048,-21722,-423,-2383,392,651,-79,246,2
144480760,15317,-1771,-10489,0.40833046,0.912834177,0.031410759,-0.998719357,0.05059294,-1990,-2524,-23138,-609,-2551,282,637,-95,205,2
144500760,13532,-1630,-10920,0.424199423,0.905568799,0.031410759,-0.996194698,0.087155743,-5450,-2268,-25284,-667,-2314,67,619,-77,168,2
144520760,12069,-2055,-11292,0.438371147,0.898794046,0.031410759,-0.993372766,0.11493715,-8250,-3128,-27030,-655,-2070,27,615,-75,130,2
144540760,10324,-3237,-12070,0.4539905,0.891006524,0.036643709,-0.99074784,0.135715572,-11626,-5420,-29328,-754,-1822,-65,585,-95,148,2
144560760,7432,-3627,-11902,0.475624209,0.879648573,0.041875654,-0.988228381,0.152985836,-17304,-6082,-29594,-1002,-1720,-87,593,-91,105,2
144580760,6348,-3118,-11348,0.507538363,0.86162916,0.041875654,-0.985996037,0.166768747,-19382,-5026,-28970,-1502,-1632,-22,565,-83,90,2
144600760,6410,-1139,-10642,0.544639035,0.838670568,0.033155178,-0.98450318,0.175366726,-19214,-1216,-27830,-1797,-1386,122,577,-103,91,2
144620760,6225,-308,-9471,0.569279523,0.822144041,0.022687334,-0.983885038,0.178802215,-19558,146,-25614,-1278,-1236,227,565,-91,96,2
144640760,9350,-190,-6042,0.579281172,0.815127796,0.01396218,-0.981958713,0.189095443,-13284,112,-18886,-570,-1261,251,553,-103,63,2
144660760,10145,-1669,-1099,0.576432316,0.817144898,0.019197442,-0.975916762,0.218143241,-11566,-2806,-9586,143,-1593,-10,531,-103,56,2
144680760,14794,-5261,1788,0.579281172,0.815127796,0.029666244,-0.967267753,0.253757945,-2012,-9804,-4820,-88,-1678,-82,507,-103,35,2
144700760,17357,-4533,5083,0.58212297,0.813100761,0.036643709,-0.953190668,0.302369891,3548,-8060,294,-134,-2072,-31,509,-95,-11,2
144720760,11993,6294,18315,0.597625147,0.801775644,0.024432178,-0.943222658,0.332161132,-7034,13720,26360,-692,-518,-122,489,-107,-27,2
144740760,13162,8133,8780,0.623879597,0.781520472,0.00698126,-0.94776841,0.318959309,-4742,16970,7372,-1316,834,-271,489,-105,-15,2
144760760,20068,16216,16037,0.654740814,0.755853469,-0.022687334,-0.946085359,0.323917418,9090,32152,21792,-1715,139,115,511,-119,20,2
144780760,18338,14279,13152,0.665230355,0.746638182,-0.041875654,-0.939094252,0.343659695,5902,27652,15294,-586,-626,-50,491,-129,40,2
144800760,14697,7103,6869,0.654740814,0.755853469,-0.041875654,-0.930417568,0.366501227,-1042,13152,1816,692,-934,-202,481,-123,28,2
144820760,-1715,5262,1897,0.654740814,0.755853469,-0.068015291,-0.929132572,0.369746757,31598,9156,-7900,16,356,-54,473,-97,12,2
144840764,7834,-11446,10079,0.654740814,0.755853469,-0.01396218,-0.91636273,0.400349033,-14440,-24056,7426,553,-924,-1237,479,-87,47,2
144860764,32764,17602,-293,0.709570737,0.70463421,-0.040131793,-0.932953535,0.359996808,-30458,-31248,-12570,-2977,1320,-674,487,-51,48,2
144880764,8300,4366,5854,0.727772758,0.685818353,-0.043619387,-0.9547608,0.297374874,-14740,7622,2332,-880,2966,-609,495,-85,79,2
144900764,7825,-1076,-5936,0.707106781,0.707106781,-0.003490651,-0.973975967,0.226651307,-16050,-2386,-19962,1566,2038,-1142,533,-65,153,2
144920764,11262,-13492,-9800,0.683273774,0.730162277,0.033155178,-0.979222811,0.202787295,-9388,-26496,-26740,1493,281,-447,563,-33,118,2
144940764,22986,-9637,-5389,0.673012514,0.739631095,0.054078813,-0.983571471,0.180519145,13920,-17806,-17020,640,401,-313,541,-33,122,2
144960764,16156,-6322,-557,0.669130606,0.743144825,0.074978727,-0.989015863,0.147809411,76,-10448,-6066,283,1130,-461,551,5,118,2
144980764,16620,-6498,-626,0.669130606,0.743144825,0.092370587,-0.993372766,0.11493715,910,-10180,-5120,65,1136,-409,547,15,137,2
145000764,15802,-6870,-1107,0.671720589,0.740804596,0.109734311,-0.996778878,0.080198924,-788,-10376,-4892,-65,1307,-355,557,11,156,2
145020764,15874,-3870,-1261,0.674302388,0.738455341,0.121869343,-0.99897057,0.045362988,-650,-3814,-4090,-149,1222,-349,551,31,174,2
145040764,16173,-1361,-425,0.67815967,0.734914595,0.13225639,-0.999847695,0.017452406,-26,1634,-1400,-145,1125,-401,567,39,168,2
145060764,15710,-1429,-515,0.675590208,0.737277337,0.142628934,-0.999945169,-0.010471784,-900,1846,-652,167,1110,-452,577,33,196,2
145080764,16081,-1455,-440,0.669130606,0.743144825,0.15126082,-0.999262916,-0.038387809,-86,2122,404,354,1057,-436,583,43,209,2
145100764,15709,-682,270,0.660001668,0.751264134,0.156434465,-0.997915618,-0.064532308,-734,3926,2746,530,1077,-427,587,59,244,2
145120764,14728,-1482,349,0.641449632,0.767165152,0.163325962,-0.995396198,-0.095845753,-2584,2480,3954,960,1246,-410,589,53,270,2
145140764,14239,-3382,276,0.619779032,0.784776371,0.170209499,-0.99121554,-0.13225639,-3406,-1210,4976,1138,1414,-348,597,75,245,2
145160764,15801,-3670,-212,0.604599115,0.796529918,0.175366726,-0.986285602,-0.165047606,-70,-1612,5084,809,1420,-264,597,89,271,2
145180764,16059,-2732,658,0.594822787,0.803856861,0.178802215,-0.980955155,-0.194234351,670,426,7832,532,1371,-235,595,85,299,2
145200764,15955,-1889,2383,0.587785252,0.809016994,0.180519145,-0.975149354,-0.221548498,706,2238,12252,450,1443,-264,593,95,311,2
145220768,16298,-1764,3705,0.580702956,0.814115518,0.183951351,-0.970295726,-0.241921896,1608,2594,15644,374,1341,-292,609,105,319,2
145240768,16994,-74,3342,0.575005252,0.818149717,0.183951351,-0.965016494,-0.262189179,3186,6052,15530,352,1278,-266,603,103,344,2
145260768,17179,1402,2170,0.566406237,0.824126189,0.178802215,-0.958819735,-0.284015345,3742,8908,13868,521,1324,-223,595,121,368,2
145280768,17873,820,68,0.547563223,0.836764313,0.170209499,-0.948876012,-0.315649037,5392,7474,10636,923,1573,-244,599,131,368,2
145300768,18312,-304,-95,0.526955795,0.849892693,0.165047606,-0.937888935,-0.346935652,6586,4964,11316,1074,1519,-290,611,115,389,2
145320768,19442,-2104,-120,0.509041416,0.860742027,0.161603821,-0.931691228,-0.36325123,9034,1184,11792,901,967,-281,603,129,406,2
145340768,18866,-2011,1668,0.496973961,0.867765453,0.159881188,-0.931055816,-0.364876784,7934,1284,15500,601,512,-175,593,129,417,2
145360768,19436,794,5004,0.493941867,0.86949493,0.152985836,-0.934825676,-0.355106962,8976,6786,21978,324,213,-22,587,143,425,2
145380768,21126,5097,9932,0.49848774,0.866896749,0.13225639,-0.944948912,-0.327217899,11978,14838,31098,95,-316,507,599,155,398,2
145400768,20800,10889,20346,0.522498565,0.852640164,0.11493715,-0.964095404,-0.265556117,10612,25948,-15448,-859,-1518,526,599,157,380,2
145420768,24276,4374,17791,0.532876276,0.846193166,0.111468932,-0.972775878,-0.231747903,17226,12650,-21706,-407,-443,-44,613,147,341,2
145440768,25977,8331,11348,0.521009632,0.853550797,0.09063258,-0.970716482,-0.240228042,20584,19984,31086,735,994,297,623,167,332,2
145460768,25623,-14958,448,0.455544907,0.890212805,0.068015291,-0.972775878,-0.231747903,19550,-28104,8758,3396,-323,655,619,163,318,2
